"","trial","rating1","rating2","rating3","roirating","rt","chosenrating","subject","eventduration","fix_num","choice1","choice2","choice3","leftroi","middleroi","rightroi","num_fixations","rev_fix_num"
"1",1,1,7,3,7,1782,7,1,318,1,0,1,0,0,1,0,4,4
"2",1,1,7,3,3,1782,7,1,160,2,0,1,0,0,0,1,4,3
"3",1,1,7,3,1,1782,7,1,139,3,0,1,0,1,0,0,4,2
"4",1,1,7,3,7,1782,7,1,818,4,0,1,0,0,1,0,4,1
"5",2,7,3,2,3,1063,3,1,119,1,0,1,0,0,1,0,4,4
"6",2,7,3,2,2,1063,3,1,179,2,0,1,0,0,0,1,4,3
"7",2,7,3,2,7,1063,3,1,99,3,0,1,0,1,0,0,4,2
"8",2,7,3,2,3,1063,3,1,160,4,0,1,0,0,1,0,4,1
"9",3,3,1,2,3,1171,2,1,200,1,0,0,1,1,0,0,3,3
"10",3,3,1,2,2,1171,2,1,279,2,0,0,1,0,0,1,3,2
"11",3,3,1,2,3,1171,2,1,120,3,0,0,1,1,0,0,3,1
"12",4,3,1,2,2,1368,3,1,120,1,1,0,0,0,0,1,4,4
"13",4,3,1,2,3,1368,3,1,298,2,1,0,0,1,0,0,4,3
"14",4,3,1,2,2,1368,3,1,200,3,1,0,0,0,0,1,4,2
"15",4,3,1,2,3,1368,3,1,239,4,1,0,0,1,0,0,4,1
"16",5,6,1,3,1,1476,6,1,298,1,1,0,0,0,1,0,4,4
"17",5,6,1,3,3,1476,6,1,160,2,1,0,0,0,0,1,4,3
"18",5,6,1,3,6,1476,6,1,319,3,1,0,0,1,0,0,4,2
"19",5,6,1,3,1,1476,6,1,160,4,1,0,0,0,1,0,4,1
"20",6,3,1,2,2,1394,2,1,179,1,0,0,1,0,0,1,4,4
"21",6,3,1,2,3,1394,2,1,259,2,0,0,1,1,0,0,4,3
"22",6,3,1,2,1,1394,2,1,199,3,0,0,1,0,1,0,4,2
"23",6,3,1,2,2,1394,2,1,299,4,0,0,1,0,0,1,4,1
"24",7,3,1,7,1,1482,7,1,178,1,0,0,1,0,1,0,5,5
"25",7,3,1,7,7,1482,7,1,257,2,0,0,1,0,0,1,5,4
"26",7,3,1,7,3,1482,7,1,199,3,0,0,1,1,0,0,5,3
"27",7,3,1,7,1,1482,7,1,360,4,0,0,1,0,1,0,5,2
"28",7,3,1,7,7,1482,7,1,120,5,0,0,1,0,0,1,5,1
"29",8,1,3,7,7,1419,7,1,160,1,0,0,1,0,0,1,4,4
"30",8,1,3,7,3,1419,7,1,258,2,0,0,1,0,1,0,4,3
"31",8,1,3,7,1,1419,7,1,140,3,0,0,1,1,0,0,4,2
"32",8,1,3,7,7,1419,7,1,200,4,0,0,1,0,0,1,4,1
"33",9,1,2,7,7,1393,7,1,298,1,0,0,1,0,0,1,4,4
"34",9,1,2,7,1,1393,7,1,179,2,0,0,1,1,0,0,4,3
"35",9,1,2,7,2,1393,7,1,180,3,0,0,1,0,1,0,4,2
"36",9,1,2,7,7,1393,7,1,180,4,0,0,1,0,0,1,4,1
"37",10,1,2,3,2,1450,2,1,179,1,0,1,0,0,1,0,4,4
"38",10,1,2,3,1,1450,2,1,98,2,0,1,0,1,0,0,4,3
"39",10,1,2,3,3,1450,2,1,139,3,0,1,0,0,0,1,4,2
"40",10,1,2,3,2,1450,2,1,558,4,0,1,0,0,1,0,4,1
"41",11,3,1,6,1,1341,6,1,320,1,0,0,1,0,1,0,5,5
"42",11,3,1,6,6,1341,6,1,139,2,0,0,1,0,0,1,5,4
"43",11,3,1,6,3,1341,6,1,140,3,0,0,1,1,0,0,5,3
"44",11,3,1,6,1,1341,6,1,278,4,0,0,1,0,1,0,5,2
"45",11,3,1,6,6,1341,6,1,121,5,0,0,1,0,0,1,5,1
"46",12,3,7,1,1,1189,7,1,179,1,0,1,0,0,0,1,4,4
"47",12,3,7,1,3,1189,7,1,258,2,0,1,0,1,0,0,4,3
"48",12,3,7,1,1,1189,7,1,199,3,0,1,0,0,0,1,4,2
"49",12,3,7,1,7,1189,7,1,239,4,0,1,0,0,1,0,4,1
"50",13,1,6,2,2,1274,6,1,179,1,0,1,0,0,0,1,3,3
"51",13,1,6,2,6,1274,6,1,279,2,0,1,0,0,1,0,3,2
"52",13,1,6,2,1,1274,6,1,259,3,0,1,0,1,0,0,3,1
"53",14,2,3,1,1,1437,3,1,338,1,0,1,0,0,0,1,4,4
"54",14,2,3,1,3,1437,3,1,159,2,0,1,0,0,1,0,4,3
"55",14,2,3,1,2,1437,3,1,399,3,0,1,0,1,0,0,4,2
"56",14,2,3,1,1,1437,3,1,261,4,0,1,0,0,0,1,4,1
"57",15,1,3,6,3,864,3,1,258,1,0,1,0,0,1,0,2,2
"58",15,1,3,6,6,864,3,1,238,2,0,1,0,0,0,1,2,1
"59",16,1,3,6,3,950,6,1,119,1,0,0,1,0,1,0,3,3
"60",16,1,3,6,6,950,6,1,218,2,0,0,1,0,0,1,3,2
"61",16,1,3,6,3,950,6,1,339,3,0,0,1,0,1,0,3,1
"62",17,3,1,6,6,1183,6,1,179,1,0,0,1,0,0,1,5,5
"63",17,3,1,6,1,1183,6,1,179,2,0,0,1,0,1,0,5,4
"64",17,3,1,6,6,1183,6,1,180,3,0,0,1,0,0,1,5,3
"65",17,3,1,6,3,1183,6,1,239,4,0,0,1,1,0,0,5,2
"66",17,3,1,6,6,1183,6,1,60,5,0,0,1,0,0,1,5,1
"67",18,3,1,2,3,1408,3,1,119,1,1,0,0,1,0,0,4,4
"68",18,3,1,2,2,1408,3,1,159,2,1,0,0,0,0,1,4,3
"69",18,3,1,2,1,1408,3,1,199,3,1,0,0,0,1,0,4,2
"70",18,3,1,2,3,1408,3,1,283,4,1,0,0,1,0,0,4,1
"71",19,3,6,1,1,1047,3,1,199,1,1,0,0,0,0,1,5,5
"72",19,3,6,1,3,1047,3,1,159,2,1,0,0,1,0,0,5,4
"73",19,3,6,1,1,1047,3,1,179,3,1,0,0,0,0,1,5,3
"74",19,3,6,1,6,1047,3,1,140,4,1,0,0,0,1,0,5,2
"75",19,3,6,1,3,1047,3,1,20,5,1,0,0,1,0,0,5,1
"76",20,2,1,3,1,993,3,1,159,1,0,0,1,0,1,0,4,4
"77",20,2,1,3,3,993,3,1,199,2,0,0,1,0,0,1,4,3
"78",20,2,1,3,2,993,3,1,258,3,0,0,1,1,0,0,4,2
"79",20,2,1,3,1,993,3,1,100,4,0,0,1,0,1,0,4,1
"80",21,7,3,1,7,1077,7,1,20,1,1,0,0,1,0,0,3,3
"81",21,7,3,1,3,1077,7,1,239,2,1,0,0,0,1,0,3,2
"82",21,7,3,1,7,1077,7,1,379,3,1,0,0,1,0,0,3,1
"83",22,1,7,3,7,1084,7,1,159,1,0,1,0,0,1,0,4,4
"84",22,1,7,3,3,1084,7,1,219,2,0,1,0,0,0,1,4,3
"85",22,1,7,3,1,1084,7,1,249,3,0,1,0,1,0,0,4,2
"86",22,1,7,3,7,1084,7,1,158,4,0,1,0,0,1,0,4,1
"87",23,3,1,2,2,1854,3,1,217,1,1,0,0,0,0,1,5,5
"88",23,3,1,2,1,1854,3,1,219,2,1,0,0,0,1,0,5,4
"89",23,3,1,2,3,1854,3,1,219,3,1,0,0,1,0,0,5,3
"90",23,3,1,2,2,1854,3,1,458,4,1,0,0,0,0,1,5,2
"91",23,3,1,2,3,1854,3,1,180,5,1,0,0,1,0,0,5,1
"92",24,3,7,6,7,1446,6,1,219,1,0,0,1,0,1,0,4,4
"93",24,3,7,6,6,1446,6,1,218,2,0,0,1,0,0,1,4,3
"94",24,3,7,6,3,1446,6,1,239,3,0,0,1,1,0,0,4,2
"95",24,3,7,6,7,1446,6,1,378,4,0,0,1,0,1,0,4,1
"96",25,2,1,3,3,1624,3,1,299,1,0,0,1,0,0,1,3,3
"97",25,2,1,3,2,1624,3,1,339,2,0,0,1,1,0,0,3,2
"98",25,2,1,3,3,1624,3,1,538,3,0,0,1,0,0,1,3,1
"99",26,3,1,7,1,1302,7,1,119,1,0,0,1,0,1,0,5,5
"100",26,3,1,7,7,1302,7,1,239,2,0,0,1,0,0,1,5,4
"101",26,3,1,7,3,1302,7,1,159,3,0,0,1,1,0,0,5,3
"102",26,3,1,7,1,1302,7,1,319,4,0,0,1,0,1,0,5,2
"103",26,3,1,7,7,1302,7,1,121,5,0,0,1,0,0,1,5,1
"104",27,6,2,3,2,1146,6,1,159,1,1,0,0,0,1,0,4,4
"105",27,6,2,3,3,1146,6,1,158,2,1,0,0,0,0,1,4,3
"106",27,6,2,3,6,1146,6,1,458,3,1,0,0,1,0,0,4,2
"107",27,6,2,3,3,1146,6,1,39,4,1,0,0,0,0,1,4,1
"108",28,6,1,7,1,1573,7,1,79,1,0,0,1,0,1,0,7,7
"109",28,6,1,7,7,1573,7,1,258,2,0,0,1,0,0,1,7,6
"110",28,6,1,7,1,1573,7,1,139,3,0,0,1,0,1,0,7,5
"111",28,6,1,7,6,1573,7,1,120,4,0,0,1,1,0,0,7,4
"112",28,6,1,7,1,1573,7,1,281,5,0,0,1,0,1,0,7,3
"113",28,6,1,7,6,1573,7,1,120,6,0,0,1,1,0,0,7,2
"114",28,6,1,7,7,1573,7,1,100,7,0,0,1,0,0,1,7,1
"115",29,3,2,1,1,1425,2,1,199,1,0,1,0,0,0,1,5,5
"116",29,3,2,1,3,1425,2,1,299,2,0,1,0,1,0,0,5,4
"117",29,3,2,1,2,1425,2,1,219,3,0,1,0,0,1,0,5,3
"118",29,3,2,1,1,1425,2,1,159,4,0,1,0,0,0,1,5,2
"119",29,3,2,1,2,1425,2,1,139,5,0,1,0,0,1,0,5,1
"120",30,3,7,1,1,1467,7,1,100,1,0,1,0,0,0,1,4,4
"121",30,3,7,1,3,1467,7,1,199,2,0,1,0,1,0,0,4,3
"122",30,3,7,1,7,1467,7,1,239,3,0,1,0,0,1,0,4,2
"123",30,3,7,1,1,1467,7,1,399,4,0,1,0,0,0,1,4,1
"124",31,6,1,3,6,1314,6,1,159,1,1,0,0,1,0,0,5,5
"125",31,6,1,3,1,1314,6,1,159,2,1,0,0,0,1,0,5,4
"126",31,6,1,3,6,1314,6,1,240,3,1,0,0,1,0,0,5,3
"127",31,6,1,3,1,1314,6,1,220,4,1,0,0,0,1,0,5,2
"128",31,6,1,3,3,1314,6,1,159,5,1,0,0,0,0,1,5,1
"129",32,2,7,1,7,961,7,1,179,1,0,1,0,0,1,0,3,3
"130",32,2,7,1,1,961,7,1,180,2,0,1,0,0,0,1,3,2
"131",32,2,7,1,2,961,7,1,80,3,0,1,0,1,0,0,3,1
"132",33,3,2,1,2,1350,2,1,139,1,0,1,0,0,1,0,4,4
"133",33,3,2,1,1,1350,2,1,179,2,0,1,0,0,0,1,4,3
"134",33,3,2,1,3,1350,2,1,318,3,0,1,0,1,0,0,4,2
"135",33,3,2,1,2,1350,2,1,180,4,0,1,0,0,1,0,4,1
"136",34,3,2,1,2,1547,3,1,79,1,1,0,0,0,1,0,5,5
"137",34,3,2,1,1,1547,3,1,159,2,1,0,0,0,0,1,5,4
"138",34,3,2,1,3,1547,3,1,199,3,1,0,0,1,0,0,5,3
"139",34,3,2,1,2,1547,3,1,444,4,1,0,0,0,1,0,5,2
"140",34,3,2,1,3,1547,3,1,280,5,1,0,0,1,0,0,5,1
"141",35,3,6,1,3,938,6,1,120,1,0,1,0,1,0,0,4,4
"142",35,3,6,1,1,938,6,1,139,2,0,1,0,0,0,1,4,3
"143",35,3,6,1,6,938,6,1,259,3,0,1,0,0,1,0,4,2
"144",35,3,6,1,1,938,6,1,100,4,0,1,0,0,0,1,4,1
"145",36,1,3,2,3,1498,3,1,279,1,0,1,0,0,1,0,4,4
"146",36,1,3,2,1,1498,3,1,179,2,0,1,0,1,0,0,4,3
"147",36,1,3,2,2,1498,3,1,280,3,0,1,0,0,0,1,4,2
"148",36,1,3,2,3,1498,3,1,299,4,0,1,0,0,1,0,4,1
"149",37,3,2,1,2,1834,3,1,179,1,1,0,0,0,1,0,7,7
"150",37,3,2,1,1,1834,3,1,140,2,1,0,0,0,0,1,7,6
"151",37,3,2,1,3,1834,3,1,299,3,1,0,0,1,0,0,7,5
"152",37,3,2,1,2,1834,3,1,379,4,1,0,0,0,1,0,7,4
"153",37,3,2,1,3,1834,3,1,119,5,1,0,0,1,0,0,7,3
"154",37,3,2,1,2,1834,3,1,200,6,1,0,0,0,1,0,7,2
"155",37,3,2,1,3,1834,3,1,99,7,1,0,0,1,0,0,7,1
"156",38,2,3,1,3,1521,3,1,239,1,0,1,0,0,1,0,4,4
"157",38,2,3,1,2,1521,3,1,338,2,0,1,0,1,0,0,4,3
"158",38,2,3,1,1,1521,3,1,239,3,0,1,0,0,0,1,4,2
"159",38,2,3,1,3,1521,3,1,402,4,0,1,0,0,1,0,4,1
"160",39,3,2,1,1,1409,2,1,99,1,0,1,0,0,0,1,4,4
"161",39,3,2,1,3,1409,2,1,219,2,0,1,0,1,0,0,4,3
"162",39,3,2,1,2,1409,2,1,376,3,0,1,0,0,1,0,4,2
"163",39,3,2,1,1,1409,2,1,199,4,0,1,0,0,0,1,4,1
"164",40,2,1,3,1,2056,2,1,119,1,1,0,0,0,1,0,7,7
"165",40,2,1,3,2,2056,2,1,259,2,1,0,0,1,0,0,7,6
"166",40,2,1,3,3,2056,2,1,298,3,1,0,0,0,0,1,7,5
"167",40,2,1,3,2,2056,2,1,259,4,1,0,0,1,0,0,7,4
"168",40,2,1,3,3,2056,2,1,159,5,1,0,0,0,0,1,7,3
"169",40,2,1,3,1,2056,2,1,179,6,1,0,0,0,1,0,7,2
"170",40,2,1,3,2,2056,2,1,158,7,1,0,0,1,0,0,7,1
"171",41,3,2,1,3,1639,1,1,140,1,0,0,1,1,0,0,6,6
"172",41,3,2,1,1,1639,1,1,159,2,0,0,1,0,0,1,6,5
"173",41,3,2,1,2,1639,1,1,299,3,0,0,1,0,1,0,6,4
"174",41,3,2,1,1,1639,1,1,319,4,0,0,1,0,0,1,6,3
"175",41,3,2,1,3,1639,1,1,299,5,0,0,1,1,0,0,6,2
"176",41,3,2,1,1,1639,1,1,100,6,0,0,1,0,0,1,6,1
"177",42,1,2,7,1,1336,7,1,99,1,0,0,1,1,0,0,4,4
"178",42,1,2,7,7,1336,7,1,179,2,0,0,1,0,0,1,4,3
"179",42,1,2,7,2,1336,7,1,259,3,0,0,1,0,1,0,4,2
"180",42,1,2,7,7,1336,7,1,320,4,0,0,1,0,0,1,4,1
"181",43,1,7,3,3,1045,7,1,139,1,0,1,0,0,0,1,4,4
"182",43,1,7,3,7,1045,7,1,158,2,0,1,0,0,1,0,4,3
"183",43,1,7,3,1,1045,7,1,299,3,0,1,0,1,0,0,4,2
"184",43,1,7,3,3,1045,7,1,139,4,0,1,0,0,0,1,4,1
"185",44,2,1,3,2,1460,2,1,160,1,1,0,0,1,0,0,4,4
"186",44,2,1,3,1,1460,2,1,218,2,1,0,0,0,1,0,4,3
"187",44,2,1,3,3,1460,2,1,359,3,1,0,0,0,0,1,4,2
"188",44,2,1,3,2,1460,2,1,260,4,1,0,0,1,0,0,4,1
"189",45,1,6,3,3,892,6,1,220,1,0,1,0,0,0,1,3,3
"190",45,1,6,3,1,892,6,1,200,2,0,1,0,1,0,0,3,2
"191",45,1,6,3,3,892,6,1,159,3,0,1,0,0,0,1,3,1
"192",46,2,1,7,1,887,7,1,159,1,0,0,1,0,1,0,3,3
"193",46,2,1,7,7,887,7,1,299,2,0,0,1,0,0,1,3,2
"194",46,2,1,7,2,887,7,1,119,3,0,0,1,1,0,0,3,1
"195",47,1,3,6,3,1438,6,1,179,1,0,0,1,0,1,0,4,4
"196",47,1,3,6,1,1438,6,1,258,2,0,0,1,1,0,0,4,3
"197",47,1,3,6,6,1438,6,1,159,3,0,0,1,0,0,1,4,2
"198",47,1,3,6,3,1438,6,1,320,4,0,0,1,0,1,0,4,1
"199",48,1,3,2,3,908,2,1,140,1,0,0,1,0,1,0,3,3
"200",48,1,3,2,2,908,2,1,239,2,0,0,1,0,0,1,3,2
"201",48,1,3,2,1,908,2,1,119,3,0,0,1,1,0,0,3,1
"202",49,3,1,2,1,1207,2,1,200,1,0,0,1,0,1,0,4,4
"203",49,3,1,2,2,1207,2,1,179,2,0,0,1,0,0,1,4,3
"204",49,3,1,2,3,1207,2,1,398,3,0,0,1,1,0,0,4,2
"205",49,3,1,2,1,1207,2,1,140,4,0,0,1,0,1,0,4,1
"206",50,3,6,1,6,1116,6,1,298,1,0,1,0,0,1,0,3,3
"207",50,3,6,1,1,1116,6,1,238,2,0,1,0,0,0,1,3,2
"208",50,3,6,1,6,1116,6,1,319,3,0,1,0,0,1,0,3,1
"209",51,7,2,1,1,1315,7,1,179,1,1,0,0,0,0,1,4,4
"210",51,7,2,1,7,1315,7,1,120,2,1,0,0,1,0,0,4,3
"211",51,7,2,1,2,1315,7,1,239,3,1,0,0,0,1,0,4,2
"212",51,7,2,1,7,1315,7,1,279,4,1,0,0,1,0,0,4,1
"213",52,1,2,3,2,1231,3,1,239,1,0,0,1,0,1,0,3,3
"214",52,1,2,3,3,1231,3,1,279,2,0,0,1,0,0,1,3,2
"215",52,1,2,3,2,1231,3,1,479,3,0,0,1,0,1,0,3,1
"216",53,1,3,2,3,1246,2,1,158,1,0,0,1,0,1,0,4,4
"217",53,1,3,2,2,1246,2,1,219,2,0,0,1,0,0,1,4,3
"218",53,1,3,2,1,1246,2,1,199,3,0,0,1,1,0,0,4,2
"219",53,1,3,2,3,1246,2,1,359,4,0,0,1,0,1,0,4,1
"220",54,3,1,2,1,1005,2,1,139,1,0,0,1,0,1,0,4,4
"221",54,3,1,2,2,1005,2,1,239,2,0,0,1,0,0,1,4,3
"222",54,3,1,2,3,1005,2,1,219,3,0,0,1,1,0,0,4,2
"223",54,3,1,2,1,1005,2,1,100,4,0,0,1,0,1,0,4,1
"224",55,3,1,2,1,1100,2,1,180,1,0,0,1,0,1,0,3,3
"225",55,3,1,2,3,1100,2,1,199,2,0,0,1,1,0,0,3,2
"226",55,3,1,2,2,1100,2,1,439,3,0,0,1,0,0,1,3,1
"227",56,1,3,6,6,779,6,1,219,1,0,0,1,0,0,1,2,2
"228",56,1,3,6,1,779,6,1,160,2,0,0,1,1,0,0,2,1
"229",57,1,2,3,3,1935,2,1,219,1,0,1,0,0,0,1,5,5
"230",57,1,2,3,2,1935,2,1,179,2,0,1,0,0,1,0,5,4
"231",57,1,2,3,1,1935,2,1,379,3,0,1,0,1,0,0,5,3
"232",57,1,2,3,3,1935,2,1,259,4,0,1,0,0,0,1,5,2
"233",57,1,2,3,2,1935,2,1,339,5,0,1,0,0,1,0,5,1
"234",58,7,3,1,1,946,7,1,120,1,1,0,0,0,0,1,2,2
"235",58,7,3,1,7,946,7,1,458,2,1,0,0,1,0,0,2,1
"236",59,3,1,6,6,776,6,1,239,1,0,0,1,0,0,1,1,1
"237",60,1,3,2,3,1458,3,1,220,1,0,1,0,0,1,0,4,4
"238",60,1,3,2,2,1458,3,1,199,2,0,1,0,0,0,1,4,3
"239",60,1,3,2,1,1458,3,1,199,3,0,1,0,1,0,0,4,2
"240",60,1,3,2,3,1458,3,1,579,4,0,1,0,0,1,0,4,1
"241",61,1,3,2,2,1411,3,1,179,1,0,1,0,0,0,1,5,5
"242",61,1,3,2,1,1411,3,1,199,2,0,1,0,1,0,0,5,4
"243",61,1,3,2,2,1411,3,1,199,3,0,1,0,0,0,1,5,3
"244",61,1,3,2,3,1411,3,1,219,4,0,1,0,0,1,0,5,2
"245",61,1,3,2,2,1411,3,1,239,5,0,1,0,0,0,1,5,1
"246",62,3,1,2,2,971,2,1,299,1,0,0,1,0,0,1,2,2
"247",62,3,1,2,3,971,2,1,418,2,0,0,1,1,0,0,2,1
"248",63,2,1,3,1,1182,3,1,179,1,0,0,1,0,1,0,4,4
"249",63,2,1,3,3,1182,3,1,199,2,0,0,1,0,0,1,4,3
"250",63,2,1,3,2,1182,3,1,319,3,0,0,1,1,0,0,4,2
"251",63,2,1,3,3,1182,3,1,159,4,0,0,1,0,0,1,4,1
"252",64,3,1,2,2,1401,2,1,199,1,0,0,1,0,0,1,4,4
"253",64,3,1,2,3,1401,2,1,299,2,0,0,1,1,0,0,4,3
"254",64,3,1,2,1,1401,2,1,259,3,0,0,1,0,1,0,4,2
"255",64,3,1,2,2,1401,2,1,321,4,0,0,1,0,0,1,4,1
"256",65,7,3,1,1,984,7,1,179,1,1,0,0,0,0,1,4,4
"257",65,7,3,1,7,984,7,1,298,2,1,0,0,1,0,0,4,3
"258",65,7,3,1,3,984,7,1,179,3,1,0,0,0,1,0,4,2
"259",65,7,3,1,7,984,7,1,41,4,1,0,0,1,0,0,4,1
"260",66,7,2,3,2,989,7,1,158,1,1,0,0,0,1,0,4,4
"261",66,7,2,3,7,989,7,1,279,2,1,0,0,1,0,0,4,3
"262",66,7,2,3,3,989,7,1,139,3,1,0,0,0,0,1,4,2
"263",66,7,2,3,2,989,7,1,120,4,1,0,0,0,1,0,4,1
"264",67,1,2,3,1,1297,3,1,119,1,0,0,1,1,0,0,4,4
"265",67,1,2,3,3,1297,3,1,259,2,0,0,1,0,0,1,4,3
"266",67,1,2,3,2,1297,3,1,398,3,0,0,1,0,1,0,4,2
"267",67,1,2,3,3,1297,3,1,121,4,0,0,1,0,0,1,4,1
"268",68,1,2,3,3,1312,3,1,398,1,0,0,1,0,0,1,4,4
"269",68,1,2,3,2,1312,3,1,239,2,0,0,1,0,1,0,4,3
"270",68,1,2,3,1,1312,3,1,239,3,0,0,1,1,0,0,4,2
"271",68,1,2,3,3,1312,3,1,119,4,0,0,1,0,0,1,4,1
"272",69,1,2,6,6,776,6,1,259,1,0,0,1,0,0,1,2,2
"273",69,1,2,6,1,776,6,1,140,2,0,0,1,1,0,0,2,1
"274",70,1,3,2,2,1297,3,1,160,1,0,1,0,0,0,1,3,3
"275",70,1,3,2,1,1297,3,1,219,2,0,1,0,1,0,0,3,2
"276",70,1,3,2,3,1297,3,1,518,3,0,1,0,0,1,0,3,1
"277",71,3,1,2,1,719,2,1,120,1,0,0,1,0,1,0,3,3
"278",71,3,1,2,2,719,2,1,258,2,0,0,1,0,0,1,3,2
"279",71,3,1,2,3,719,2,1,102,3,0,0,1,1,0,0,3,1
"280",72,1,3,2,1,1230,3,1,159,1,0,1,0,1,0,0,4,4
"281",72,1,3,2,3,1230,3,1,259,2,0,1,0,0,1,0,4,3
"282",72,1,3,2,2,1230,3,1,239,3,0,1,0,0,0,1,4,2
"283",72,1,3,2,3,1230,3,1,120,4,0,1,0,0,1,0,4,1
"284",73,3,7,1,7,821,7,1,159,1,0,1,0,0,1,0,3,3
"285",73,3,7,1,1,821,7,1,239,2,0,1,0,0,0,1,3,2
"286",73,3,7,1,3,821,7,1,139,3,0,1,0,1,0,0,3,1
"287",74,3,2,1,1,1521,3,1,199,1,1,0,0,0,0,1,5,5
"288",74,3,2,1,2,1521,3,1,239,2,1,0,0,0,1,0,5,4
"289",74,3,2,1,3,1521,3,1,220,3,1,0,0,1,0,0,5,3
"290",74,3,2,1,1,1521,3,1,259,4,1,0,0,0,0,1,5,2
"291",74,3,2,1,2,1521,3,1,120,5,1,0,0,0,1,0,5,1
"292",75,3,1,2,2,1347,3,1,159,1,1,0,0,0,0,1,4,4
"293",75,3,1,2,3,1347,3,1,240,2,1,0,0,1,0,0,4,3
"294",75,3,1,2,1,1347,3,1,319,3,1,0,0,0,1,0,4,2
"295",75,3,1,2,3,1347,3,1,220,4,1,0,0,1,0,0,4,1
"296",76,1,3,2,2,778,2,1,239,1,0,0,1,0,0,1,2,2
"297",76,1,3,2,3,778,2,1,263,2,0,0,1,0,1,0,2,1
"298",77,3,1,2,2,1239,3,1,139,1,1,0,0,0,0,1,4,4
"299",77,3,1,2,3,1239,3,1,239,2,1,0,0,1,0,0,4,3
"300",77,3,1,2,1,1239,3,1,339,3,1,0,0,0,1,0,4,2
"301",77,3,1,2,3,1239,3,1,82,4,1,0,0,1,0,0,4,1
"302",78,1,3,6,3,1031,6,1,199,1,0,0,1,0,1,0,2,2
"303",78,1,3,6,6,1031,6,1,577,2,0,0,1,0,0,1,2,1
"304",79,2,1,3,2,1521,3,1,158,1,0,0,1,1,0,0,4,4
"305",79,2,1,3,3,1521,3,1,139,2,0,0,1,0,0,1,4,3
"306",79,2,1,3,1,1521,3,1,280,3,0,0,1,0,1,0,4,2
"307",79,2,1,3,3,1521,3,1,422,4,0,0,1,0,0,1,4,1
"308",80,1,7,3,3,1114,7,1,139,1,0,1,0,0,0,1,2,2
"309",80,1,7,3,7,1114,7,1,398,2,0,1,0,0,1,0,2,1
"310",81,1,3,6,3,1059,6,1,199,1,0,0,1,0,1,0,2,2
"311",81,1,3,6,6,1059,6,1,501,2,0,0,1,0,0,1,2,1
"312",82,3,1,2,1,1501,3,1,140,1,1,0,0,0,1,0,5,5
"313",82,3,1,2,2,1501,3,1,279,2,1,0,0,0,0,1,5,4
"314",82,3,1,2,3,1501,3,1,319,3,1,0,0,1,0,0,5,3
"315",82,3,1,2,1,1501,3,1,200,4,1,0,0,0,1,0,5,2
"316",82,3,1,2,3,1501,3,1,201,5,1,0,0,1,0,0,5,1
"317",83,2,1,3,1,1555,3,1,200,1,0,0,1,0,1,0,5,5
"318",83,2,1,3,3,1555,3,1,238,2,0,0,1,0,0,1,5,4
"319",83,2,1,3,2,1555,3,1,199,3,0,0,1,1,0,0,5,3
"320",83,2,1,3,1,1555,3,1,439,4,0,0,1,0,1,0,5,2
"321",83,2,1,3,3,1555,3,1,61,5,0,0,1,0,0,1,5,1
"322",84,3,1,2,2,1289,3,1,179,1,1,0,0,0,0,1,2,2
"323",84,3,1,2,3,1289,3,1,658,2,1,0,0,1,0,0,2,1
"324",85,6,7,3,7,835,7,1,200,1,0,1,0,0,1,0,3,3
"325",85,6,7,3,3,835,7,1,258,2,0,1,0,0,0,1,3,2
"326",85,6,7,3,7,835,7,1,100,3,0,1,0,0,1,0,3,1
"327",86,3,7,1,1,810,7,1,219,1,0,1,0,0,0,1,2,2
"328",86,3,7,1,3,810,7,1,199,2,0,1,0,1,0,0,2,1
"329",87,3,1,2,1,1089,2,1,140,1,0,0,1,0,1,0,3,3
"330",87,3,1,2,2,1089,2,1,219,2,0,0,1,0,0,1,3,2
"331",87,3,1,2,3,1089,2,1,438,3,0,0,1,1,0,0,3,1
"332",88,7,1,3,3,1101,3,1,199,1,0,0,1,0,0,1,4,4
"333",88,7,1,3,7,1101,3,1,239,2,0,0,1,1,0,0,4,3
"334",88,7,1,3,1,1101,3,1,259,3,0,0,1,0,1,0,4,2
"335",88,7,1,3,3,1101,3,1,82,4,0,0,1,0,0,1,4,1
"336",89,1,3,7,3,788,7,1,119,1,0,0,1,0,1,0,2,2
"337",89,1,3,7,7,788,7,1,418,2,0,0,1,0,0,1,2,1
"338",90,1,2,3,3,706,3,1,259,1,0,0,1,0,0,1,2,2
"339",90,1,2,3,1,706,3,1,60,2,0,0,1,1,0,0,2,1
"340",91,1,3,7,3,748,7,1,79,1,0,0,1,0,1,0,3,3
"341",91,1,3,7,7,748,7,1,218,2,0,0,1,0,0,1,3,2
"342",91,1,3,7,1,748,7,1,159,3,0,0,1,1,0,0,3,1
"343",92,1,3,2,2,1246,3,1,180,1,0,1,0,0,0,1,4,4
"344",92,1,3,2,3,1246,3,1,179,2,0,1,0,0,1,0,4,3
"345",92,1,3,2,1,1246,3,1,339,3,0,1,0,1,0,0,4,2
"346",92,1,3,2,3,1246,3,1,120,4,0,1,0,0,1,0,4,1
"347",93,1,3,2,2,974,2,1,358,1,0,0,1,0,0,1,3,3
"348",93,1,3,2,3,974,2,1,278,2,0,0,1,0,1,0,3,2
"349",93,1,3,2,1,974,2,1,20,3,0,0,1,1,0,0,3,1
"350",94,1,3,2,2,988,2,1,338,1,0,0,1,0,0,1,3,3
"351",94,1,3,2,1,988,2,1,218,2,0,0,1,1,0,0,3,2
"352",94,1,3,2,3,988,2,1,100,3,0,0,1,0,1,0,3,1
"353",95,7,2,3,2,1115,7,1,199,1,1,0,0,0,1,0,4,4
"354",95,7,2,3,7,1115,7,1,219,2,1,0,0,1,0,0,4,3
"355",95,7,2,3,3,1115,7,1,299,3,1,0,0,0,0,1,4,2
"356",95,7,2,3,7,1115,7,1,80,4,1,0,0,1,0,0,4,1
"357",96,2,1,3,1,1164,3,1,199,1,0,0,1,0,1,0,4,4
"358",96,2,1,3,3,1164,3,1,179,2,0,0,1,0,0,1,4,3
"359",96,2,1,3,2,1164,3,1,378,3,0,0,1,1,0,0,4,2
"360",96,2,1,3,3,1164,3,1,99,4,0,0,1,0,0,1,4,1
"361",97,3,1,2,3,1633,3,1,179,1,1,0,0,1,0,0,4,4
"362",97,3,1,2,2,1633,3,1,438,2,1,0,0,0,0,1,4,3
"363",97,3,1,2,3,1633,3,1,278,3,1,0,0,1,0,0,4,2
"364",97,3,1,2,1,1633,3,1,140,4,1,0,0,0,1,0,4,1
"365",98,3,2,1,2,1328,3,1,159,1,1,0,0,0,1,0,4,4
"366",98,3,2,1,1,1328,3,1,160,2,1,0,0,0,0,1,4,3
"367",98,3,2,1,3,1328,3,1,497,3,1,0,0,1,0,0,4,2
"368",98,3,2,1,2,1328,3,1,200,4,1,0,0,0,1,0,4,1
"369",99,3,1,7,7,779,7,1,298,1,0,0,1,0,0,1,2,2
"370",99,3,1,7,3,779,7,1,121,2,0,0,1,1,0,0,2,1
"371",100,1,3,2,2,2107,3,1,100,1,0,1,0,0,0,1,6,6
"372",100,1,3,2,3,2107,3,1,199,2,0,1,0,0,1,0,6,5
"373",100,1,3,2,2,2107,3,1,259,3,0,1,0,0,0,1,6,4
"374",100,1,3,2,1,2107,3,1,220,4,0,1,0,1,0,0,6,3
"375",100,1,3,2,2,2107,3,1,160,5,0,1,0,0,0,1,6,2
"376",100,1,3,2,3,2107,3,1,679,6,0,1,0,0,1,0,6,1
"377",1,5,1,3,1,2925,5,2,239,1,1,0,0,0,1,0,6,6
"378",1,5,1,3,5,2925,5,2,358,2,1,0,0,1,0,0,6,5
"379",1,5,1,3,3,2925,5,2,399,3,1,0,0,0,0,1,6,4
"380",1,5,1,3,5,2925,5,2,259,4,1,0,0,1,0,0,6,3
"381",1,5,1,3,1,2925,5,2,419,5,1,0,0,0,1,0,6,2
"382",1,5,1,3,5,2925,5,2,538,6,1,0,0,1,0,0,6,1
"383",2,1,6,5,6,2889,6,2,716,1,0,1,0,0,1,0,6,6
"384",2,1,6,5,5,2889,6,2,239,2,0,1,0,0,0,1,6,5
"385",2,1,6,5,1,2889,6,2,677,3,0,1,0,1,0,0,6,4
"386",2,1,6,5,5,2889,6,2,180,4,0,1,0,0,0,1,6,3
"387",2,1,6,5,1,2889,6,2,139,5,0,1,0,1,0,0,6,2
"388",2,1,6,5,6,2889,6,2,339,6,0,1,0,0,1,0,6,1
"389",3,8,5,2,8,1837,8,2,578,1,1,0,0,1,0,0,4,4
"390",3,8,5,2,2,1837,8,2,320,2,1,0,0,0,0,1,4,3
"391",3,8,5,2,5,1837,8,2,281,3,1,0,0,0,1,0,4,2
"392",3,8,5,2,8,1837,8,2,259,4,1,0,0,1,0,0,4,1
"393",4,4,2,5,2,5113,5,2,265,1,0,0,1,0,1,0,9,9
"394",4,4,2,5,4,5113,5,2,358,2,0,0,1,1,0,0,9,8
"395",4,4,2,5,5,5113,5,2,658,3,0,0,1,0,0,1,9,7
"396",4,4,2,5,4,5113,5,2,239,4,0,0,1,1,0,0,9,6
"397",4,4,2,5,2,5113,5,2,778,5,0,0,1,0,1,0,9,5
"398",4,4,2,5,4,5113,5,2,358,6,0,0,1,1,0,0,9,4
"399",4,4,2,5,5,5113,5,2,1176,7,0,0,1,0,0,1,9,3
"400",4,4,2,5,4,5113,5,2,338,8,0,0,1,1,0,0,9,2
"401",4,4,2,5,5,5113,5,2,279,9,0,0,1,0,0,1,9,1
"402",5,4,3,2,3,2993,4,2,418,1,1,0,0,0,1,0,5,5
"403",5,4,3,2,4,2993,4,2,454,2,1,0,0,1,0,0,5,4
"404",5,4,3,2,2,2993,4,2,459,3,1,0,0,0,0,1,5,3
"405",5,4,3,2,3,2993,4,2,718,4,1,0,0,0,1,0,5,2
"406",5,4,3,2,4,2993,4,2,398,5,1,0,0,1,0,0,5,1
"407",6,6,3,1,1,2154,6,2,180,1,1,0,0,0,0,1,6,6
"408",6,6,3,1,6,2154,6,2,199,2,1,0,0,1,0,0,6,5
"409",6,6,3,1,1,2154,6,2,260,3,1,0,0,0,0,1,6,4
"410",6,6,3,1,3,2154,6,2,399,4,1,0,0,0,1,0,6,3
"411",6,6,3,1,1,2154,6,2,219,5,1,0,0,0,0,1,6,2
"412",6,6,3,1,6,2154,6,2,459,6,1,0,0,1,0,0,6,1
"413",7,1,6,4,6,1634,6,2,318,1,0,1,0,0,1,0,4,4
"414",7,1,6,4,1,1634,6,2,239,2,0,1,0,1,0,0,4,3
"415",7,1,6,4,4,1634,6,2,518,3,0,1,0,0,0,1,4,2
"416",7,1,6,4,6,1634,6,2,140,4,0,1,0,0,1,0,4,1
"417",8,3,4,1,3,7260,3,2,338,1,1,0,0,1,0,0,12,12
"418",8,3,4,1,4,7260,3,2,239,2,1,0,0,0,1,0,12,11
"419",8,3,4,1,1,7260,3,2,458,3,1,0,0,0,0,1,12,10
"420",8,3,4,1,3,7260,3,2,438,4,1,0,0,1,0,0,12,9
"421",8,3,4,1,4,7260,3,2,477,5,1,0,0,0,1,0,12,8
"422",8,3,4,1,1,7260,3,2,319,6,1,0,0,0,0,1,12,7
"423",8,3,4,1,3,7260,3,2,319,7,1,0,0,1,0,0,12,6
"424",8,3,4,1,1,7260,3,2,419,8,1,0,0,0,0,1,12,5
"425",8,3,4,1,4,7260,3,2,1137,9,1,0,0,0,1,0,12,4
"426",8,3,4,1,3,7260,3,2,539,10,1,0,0,1,0,0,12,3
"427",8,3,4,1,4,7260,3,2,797,11,1,0,0,0,1,0,12,2
"428",8,3,4,1,3,7260,3,2,798,12,1,0,0,1,0,0,12,1
"429",9,2,6,4,2,1251,6,2,219,1,0,1,0,1,0,0,4,4
"430",9,2,6,4,6,1251,6,2,180,2,0,1,0,0,1,0,4,3
"431",9,2,6,4,4,1251,6,2,260,3,0,1,0,0,0,1,4,2
"432",9,2,6,4,2,1251,6,2,160,4,0,1,0,1,0,0,4,1
"433",10,3,1,6,1,2723,3,2,199,1,1,0,0,0,1,0,6,6
"434",10,3,1,6,6,2723,3,2,478,2,1,0,0,0,0,1,6,5
"435",10,3,1,6,3,2723,3,2,438,3,1,0,0,1,0,0,6,4
"436",10,3,1,6,6,2723,3,2,419,4,1,0,0,0,0,1,6,3
"437",10,3,1,6,1,2723,3,2,219,5,1,0,0,0,1,0,6,2
"438",10,3,1,6,3,2723,3,2,219,6,1,0,0,1,0,0,6,1
"439",11,2,1,5,2,6544,5,2,378,1,0,0,1,1,0,0,10,10
"440",11,2,1,5,5,6544,5,2,577,2,0,0,1,0,0,1,10,9
"441",11,2,1,5,1,6544,5,2,617,3,0,0,1,0,1,0,10,8
"442",11,2,1,5,5,6544,5,2,161,4,0,0,1,0,0,1,10,7
"443",11,2,1,5,2,6544,5,2,678,5,0,0,1,1,0,0,10,6
"444",11,2,1,5,5,6544,5,2,857,6,0,0,1,0,0,1,10,5
"445",11,2,1,5,1,6544,5,2,636,7,0,0,1,0,1,0,10,4
"446",11,2,1,5,5,6544,5,2,937,8,0,0,1,0,0,1,10,3
"447",11,2,1,5,1,6544,5,2,837,9,0,0,1,0,1,0,10,2
"448",11,2,1,5,5,6544,5,2,120,10,0,0,1,0,0,1,10,1
"449",12,3,8,1,8,2648,8,2,219,1,0,1,0,0,1,0,8,8
"450",12,3,8,1,1,2648,8,2,180,2,0,1,0,0,0,1,8,7
"451",12,3,8,1,3,2648,8,2,199,3,0,1,0,1,0,0,8,6
"452",12,3,8,1,8,2648,8,2,239,4,0,1,0,0,1,0,8,5
"453",12,3,8,1,1,2648,8,2,478,5,0,1,0,0,0,1,8,4
"454",12,3,8,1,8,2648,8,2,219,6,0,1,0,0,1,0,8,3
"455",12,3,8,1,3,2648,8,2,239,7,0,1,0,1,0,0,8,2
"456",12,3,8,1,8,2648,8,2,219,8,0,1,0,0,1,0,8,1
"457",13,2,6,1,2,1577,6,2,336,1,0,1,0,1,0,0,3,3
"458",13,2,6,1,6,1577,6,2,537,2,0,1,0,0,1,0,3,2
"459",13,2,6,1,1,1577,6,2,340,3,0,1,0,0,0,1,3,1
"460",14,2,6,4,6,1741,6,2,199,1,0,1,0,0,1,0,5,5
"461",14,2,6,4,2,1741,6,2,338,2,0,1,0,1,0,0,5,4
"462",14,2,6,4,6,1741,6,2,358,3,0,1,0,0,1,0,5,3
"463",14,2,6,4,4,1741,6,2,359,4,0,1,0,0,0,1,5,2
"464",14,2,6,4,2,1741,6,2,79,5,0,1,0,1,0,0,5,1
"465",15,6,5,1,6,2421,6,2,398,1,1,0,0,1,0,0,5,5
"466",15,6,5,1,5,2421,6,2,418,2,1,0,0,0,1,0,5,4
"467",15,6,5,1,1,2421,6,2,359,3,1,0,0,0,0,1,5,3
"468",15,6,5,1,6,2421,6,2,458,4,1,0,0,1,0,0,5,2
"469",15,6,5,1,5,2421,6,2,320,5,1,0,0,0,1,0,5,1
"470",16,2,5,1,2,1589,5,2,180,1,0,1,0,1,0,0,4,4
"471",16,2,5,1,5,1589,5,2,420,2,0,1,0,0,1,0,4,3
"472",16,2,5,1,1,1589,5,2,358,3,0,1,0,0,0,1,4,2
"473",16,2,5,1,2,1589,5,2,198,4,0,1,0,1,0,0,4,1
"474",17,5,6,4,5,3724,6,2,735,1,0,1,0,1,0,0,5,5
"475",17,5,6,4,6,3724,6,2,243,2,0,1,0,0,1,0,5,4
"476",17,5,6,4,4,3724,6,2,237,3,0,1,0,0,0,1,5,3
"477",17,5,6,4,5,3724,6,2,1874,4,0,1,0,1,0,0,5,2
"478",17,5,6,4,6,3724,6,2,140,5,0,1,0,0,1,0,5,1
"479",18,4,1,5,4,3211,5,2,339,1,0,0,1,1,0,0,5,5
"480",18,4,1,5,1,3211,5,2,299,2,0,0,1,0,1,0,5,4
"481",18,4,1,5,5,3211,5,2,1370,3,0,0,1,0,0,1,5,3
"482",18,4,1,5,4,3211,5,2,358,4,0,0,1,1,0,0,5,2
"483",18,4,1,5,5,3211,5,2,181,5,0,0,1,0,0,1,5,1
"484",19,6,2,8,6,2486,8,2,796,1,0,0,1,1,0,0,5,5
"485",19,6,2,8,2,2486,8,2,240,2,0,0,1,0,1,0,5,4
"486",19,6,2,8,8,2486,8,2,458,3,0,0,1,0,0,1,5,3
"487",19,6,2,8,6,2486,8,2,398,4,0,0,1,1,0,0,5,2
"488",19,6,2,8,8,2486,8,2,162,5,0,0,1,0,0,1,5,1
"489",20,2,6,4,2,2323,6,2,218,1,0,1,0,1,0,0,5,5
"490",20,2,6,4,4,2323,6,2,199,2,0,1,0,0,0,1,5,4
"491",20,2,6,4,6,2323,6,2,1277,3,0,1,0,0,1,0,5,3
"492",20,2,6,4,4,2323,6,2,199,4,0,1,0,0,0,1,5,2
"493",20,2,6,4,2,2323,6,2,20,5,0,1,0,1,0,0,5,1
"494",21,3,4,5,3,3523,5,2,338,1,0,0,1,1,0,0,8,8
"495",21,3,4,5,5,3523,5,2,378,2,0,0,1,0,0,1,8,7
"496",21,3,4,5,4,3523,5,2,339,3,0,0,1,0,1,0,8,6
"497",21,3,4,5,3,3523,5,2,558,4,0,0,1,1,0,0,8,5
"498",21,3,4,5,5,3523,5,2,538,5,0,0,1,0,0,1,8,4
"499",21,3,4,5,4,3523,5,2,279,6,0,0,1,0,1,0,8,3
"500",21,3,4,5,3,3523,5,2,197,7,0,0,1,1,0,0,8,2
"501",21,3,4,5,5,3523,5,2,179,8,0,0,1,0,0,1,8,1
"502",22,3,4,1,4,1406,4,2,338,1,0,1,0,0,1,0,4,4
"503",22,3,4,1,1,1406,4,2,279,2,0,1,0,0,0,1,4,3
"504",22,3,4,1,3,1406,4,2,398,3,0,1,0,1,0,0,4,2
"505",22,3,4,1,4,1406,4,2,40,4,0,1,0,0,1,0,4,1
"506",23,1,6,4,1,5013,6,2,378,1,0,1,0,1,0,0,6,6
"507",23,1,6,4,6,5013,6,2,537,2,0,1,0,0,1,0,6,5
"508",23,1,6,4,4,5013,6,2,1954,3,0,1,0,0,0,1,6,4
"509",23,1,6,4,6,5013,6,2,259,4,0,1,0,0,1,0,6,3
"510",23,1,6,4,1,5013,6,2,758,5,0,1,0,1,0,0,6,2
"511",23,1,6,4,6,5013,6,2,680,6,0,1,0,0,1,0,6,1
"512",24,1,3,2,1,4202,3,2,239,1,0,1,0,1,0,0,9,9
"513",24,1,3,2,3,4202,3,2,279,2,0,1,0,0,1,0,9,8
"514",24,1,3,2,2,4202,3,2,658,3,0,1,0,0,0,1,9,7
"515",24,1,3,2,1,4202,3,2,339,4,0,1,0,1,0,0,9,6
"516",24,1,3,2,3,4202,3,2,359,5,0,1,0,0,1,0,9,5
"517",24,1,3,2,1,4202,3,2,638,6,0,1,0,1,0,0,9,4
"518",24,1,3,2,3,4202,3,2,280,7,0,1,0,0,1,0,9,3
"519",24,1,3,2,2,4202,3,2,558,8,0,1,0,0,0,1,9,2
"520",24,1,3,2,3,4202,3,2,79,9,0,1,0,0,1,0,9,1
"521",25,4,1,2,1,1823,4,2,236,1,1,0,0,0,1,0,5,5
"522",25,4,1,2,2,1823,4,2,299,2,1,0,0,0,0,1,5,4
"523",25,4,1,2,4,1823,4,2,298,3,1,0,0,1,0,0,5,3
"524",25,4,1,2,1,1823,4,2,378,4,1,0,0,0,1,0,5,2
"525",25,4,1,2,4,1823,4,2,141,5,1,0,0,1,0,0,5,1
"526",26,3,6,4,6,1274,6,2,238,1,0,1,0,0,1,0,4,4
"527",26,3,6,4,3,1274,6,2,299,2,0,1,0,1,0,0,4,3
"528",26,3,6,4,4,1274,6,2,260,3,0,1,0,0,0,1,4,2
"529",26,3,6,4,6,1274,6,2,22,4,0,1,0,0,1,0,4,1
"530",27,3,1,5,1,1347,5,2,239,1,0,0,1,0,1,0,4,4
"531",27,3,1,5,5,1347,5,2,379,2,0,0,1,0,0,1,4,3
"532",27,3,1,5,3,1347,5,2,259,3,0,0,1,1,0,0,4,2
"533",27,3,1,5,1,1347,5,2,60,4,0,0,1,0,1,0,4,1
"534",28,6,3,1,3,2246,6,2,219,1,1,0,0,0,1,0,6,6
"535",28,6,3,1,6,2246,6,2,358,2,1,0,0,1,0,0,6,5
"536",28,6,3,1,1,2246,6,2,180,3,1,0,0,0,0,1,6,4
"537",28,6,3,1,3,2246,6,2,418,4,1,0,0,0,1,0,6,3
"538",28,6,3,1,1,2246,6,2,298,5,1,0,0,0,0,1,6,2
"539",28,6,3,1,6,2246,6,2,84,6,1,0,0,1,0,0,6,1
"540",29,4,2,3,4,1323,4,2,179,1,1,0,0,1,0,0,4,4
"541",29,4,2,3,2,1323,4,2,219,2,1,0,0,0,1,0,4,3
"542",29,4,2,3,3,1323,4,2,458,3,1,0,0,0,0,1,4,2
"543",29,4,2,3,4,1323,4,2,60,4,1,0,0,1,0,0,4,1
"544",30,4,10,8,10,2782,10,2,239,1,0,1,0,0,1,0,8,8
"545",30,4,10,8,8,2782,10,2,219,2,0,1,0,0,0,1,8,7
"546",30,4,10,8,10,2782,10,2,199,3,0,1,0,0,1,0,8,6
"547",30,4,10,8,8,2782,10,2,259,4,0,1,0,0,0,1,8,5
"548",30,4,10,8,10,2782,10,2,199,5,0,1,0,0,1,0,8,4
"549",30,4,10,8,4,2782,10,2,299,6,0,1,0,1,0,0,8,3
"550",30,4,10,8,8,2782,10,2,319,7,0,1,0,0,0,1,8,2
"551",30,4,10,8,10,2782,10,2,179,8,0,1,0,0,1,0,8,1
"552",31,6,2,5,2,1750,2,2,239,1,0,1,0,0,1,0,4,4
"553",31,6,2,5,6,1750,2,2,278,2,0,1,0,1,0,0,4,3
"554",31,6,2,5,5,1750,2,2,417,3,0,1,0,0,0,1,4,2
"555",31,6,2,5,2,1750,2,2,399,4,0,1,0,0,1,0,4,1
"556",32,8,2,1,2,2167,8,2,239,1,1,0,0,0,1,0,5,5
"557",32,8,2,1,8,2167,8,2,618,2,1,0,0,1,0,0,5,4
"558",32,8,2,1,1,2167,8,2,219,3,1,0,0,0,0,1,5,3
"559",32,8,2,1,2,2167,8,2,179,4,1,0,0,0,1,0,5,2
"560",32,8,2,1,8,2167,8,2,539,5,1,0,0,1,0,0,5,1
"561",33,2,1,6,1,1533,6,2,280,1,0,0,1,0,1,0,3,3
"562",33,2,1,6,2,1533,6,2,359,2,0,0,1,1,0,0,3,2
"563",33,2,1,6,6,1533,6,2,578,3,0,0,1,0,0,1,3,1
"564",34,1,5,4,5,2515,5,2,279,1,0,1,0,0,1,0,4,4
"565",34,1,5,4,1,2515,5,2,140,2,0,1,0,1,0,0,4,3
"566",34,1,5,4,4,2515,5,2,278,3,0,1,0,0,0,1,4,2
"567",34,1,5,4,5,2515,5,2,1096,4,0,1,0,0,1,0,4,1
"568",35,4,5,1,4,2470,5,2,339,1,0,1,0,1,0,0,6,6
"569",35,4,5,1,1,2470,5,2,259,2,0,1,0,0,0,1,6,5
"570",35,4,5,1,5,2470,5,2,439,3,0,1,0,0,1,0,6,4
"571",35,4,5,1,1,2470,5,2,479,4,0,1,0,0,0,1,6,3
"572",35,4,5,1,4,2470,5,2,338,5,0,1,0,1,0,0,6,2
"573",35,4,5,1,5,2470,5,2,139,6,0,1,0,0,1,0,6,1
"574",36,5,3,10,3,1939,10,2,260,1,0,0,1,0,1,0,5,5
"575",36,5,3,10,5,1939,10,2,418,2,0,0,1,1,0,0,5,4
"576",36,5,3,10,10,1939,10,2,299,3,0,0,1,0,0,1,5,3
"577",36,5,3,10,3,1939,10,2,176,4,0,0,1,0,1,0,5,2
"578",36,5,3,10,10,1939,10,2,420,5,0,0,1,0,0,1,5,1
"579",37,8,1,2,2,1280,8,2,100,1,1,0,0,0,0,1,4,4
"580",37,8,1,2,8,1280,8,2,298,2,1,0,0,1,0,0,4,3
"581",37,8,1,2,2,1280,8,2,219,3,1,0,0,0,0,1,4,2
"582",37,8,1,2,1,1280,8,2,301,4,1,0,0,0,1,0,4,1
"583",38,5,2,1,2,3113,2,2,179,1,0,1,0,0,1,0,6,6
"584",38,5,2,1,5,3113,2,2,598,2,0,1,0,1,0,0,6,5
"585",38,5,2,1,2,3113,2,2,239,3,0,1,0,0,1,0,6,4
"586",38,5,2,1,1,3113,2,2,199,4,0,1,0,0,0,1,6,3
"587",38,5,2,1,5,3113,2,2,837,5,0,1,0,1,0,0,6,2
"588",38,5,2,1,2,3113,2,2,659,6,0,1,0,0,1,0,6,1
"589",39,2,5,6,5,2580,2,2,358,1,1,0,0,0,1,0,7,7
"590",39,2,5,6,2,2580,2,2,139,2,1,0,0,1,0,0,7,6
"591",39,2,5,6,6,2580,2,2,458,3,1,0,0,0,0,1,7,5
"592",39,2,5,6,2,2580,2,2,139,4,1,0,0,1,0,0,7,4
"593",39,2,5,6,5,2580,2,2,559,5,1,0,0,0,1,0,7,3
"594",39,2,5,6,6,2580,2,2,20,6,1,0,0,0,0,1,7,2
"595",39,2,5,6,2,2580,2,2,198,7,1,0,0,1,0,0,7,1
"596",40,3,5,2,3,2004,3,2,319,1,1,0,0,1,0,0,4,4
"597",40,3,5,2,2,2004,3,2,418,2,1,0,0,0,0,1,4,3
"598",40,3,5,2,5,2004,3,2,379,3,1,0,0,0,1,0,4,2
"599",40,3,5,2,3,2004,3,2,458,4,1,0,0,1,0,0,4,1
"600",41,3,2,4,2,1256,3,2,220,1,1,0,0,0,1,0,4,4
"601",41,3,2,4,3,1256,3,2,339,2,1,0,0,1,0,0,4,3
"602",41,3,2,4,4,1256,3,2,319,3,1,0,0,0,0,1,4,2
"603",41,3,2,4,3,1256,3,2,40,4,1,0,0,1,0,0,4,1
"604",42,2,3,1,2,5224,2,2,379,1,1,0,0,1,0,0,8,8
"605",42,2,3,1,1,5224,2,2,279,2,1,0,0,0,0,1,8,7
"606",42,2,3,1,3,5224,2,2,498,3,1,0,0,0,1,0,8,6
"607",42,2,3,1,2,5224,2,2,378,4,1,0,0,1,0,0,8,5
"608",42,2,3,1,1,5224,2,2,1077,5,1,0,0,0,0,1,8,4
"609",42,2,3,1,2,5224,2,2,777,6,1,0,0,1,0,0,8,3
"610",42,2,3,1,3,5224,2,2,657,7,1,0,0,0,1,0,8,2
"611",42,2,3,1,2,5224,2,2,599,8,1,0,0,1,0,0,8,1
"612",43,2,4,5,2,1718,4,2,186,1,0,1,0,1,0,0,4,4
"613",43,2,4,5,5,1718,4,2,299,2,0,1,0,0,0,1,4,3
"614",43,2,4,5,4,1718,4,2,498,3,0,1,0,0,1,0,4,2
"615",43,2,4,5,5,1718,4,2,239,4,0,1,0,0,0,1,4,1
"616",44,3,2,1,3,2432,3,2,199,1,1,0,0,1,0,0,6,6
"617",44,3,2,1,1,2432,3,2,338,2,1,0,0,0,0,1,6,5
"618",44,3,2,1,3,2432,3,2,458,3,1,0,0,1,0,0,6,4
"619",44,3,2,1,1,2432,3,2,298,4,1,0,0,0,0,1,6,3
"620",44,3,2,1,2,2432,3,2,379,5,1,0,0,0,1,0,6,2
"621",44,3,2,1,3,2432,3,2,241,6,1,0,0,1,0,0,6,1
"622",45,1,3,5,3,2442,3,2,259,1,0,1,0,0,1,0,6,6
"623",45,1,3,5,5,2442,3,2,299,2,0,1,0,0,0,1,6,5
"624",45,1,3,5,1,2442,3,2,339,3,0,1,0,1,0,0,6,4
"625",45,1,3,5,3,2442,3,2,359,4,0,1,0,0,1,0,6,3
"626",45,1,3,5,5,2442,3,2,578,5,0,1,0,0,0,1,6,2
"627",45,1,3,5,3,2442,3,2,179,6,0,1,0,0,1,0,6,1
"628",46,8,3,2,8,886,8,2,202,1,1,0,0,1,0,0,3,3
"629",46,8,3,2,2,886,8,2,200,2,1,0,0,0,0,1,3,2
"630",46,8,3,2,3,886,8,2,80,3,1,0,0,0,1,0,3,1
"631",47,2,3,8,2,822,8,2,160,1,0,0,1,1,0,0,3,3
"632",47,2,3,8,8,822,8,2,259,2,0,0,1,0,0,1,3,2
"633",47,2,3,8,3,822,8,2,100,3,0,0,1,0,1,0,3,1
"634",48,3,1,6,3,1910,6,2,179,1,0,0,1,1,0,0,5,5
"635",48,3,1,6,6,1910,6,2,378,2,0,0,1,0,0,1,5,4
"636",48,3,1,6,1,1910,6,2,140,3,0,0,1,0,1,0,5,3
"637",48,3,1,6,3,1910,6,2,338,4,0,0,1,1,0,0,5,2
"638",48,3,1,6,6,1910,6,2,300,5,0,0,1,0,0,1,5,1
"639",49,8,6,3,6,1689,8,2,239,1,1,0,0,0,1,0,4,4
"640",49,8,6,3,8,1689,8,2,718,2,1,0,0,1,0,0,4,3
"641",49,8,6,3,3,1689,8,2,359,3,1,0,0,0,0,1,4,2
"642",49,8,6,3,6,1689,8,2,20,4,1,0,0,0,1,0,4,1
"643",50,4,2,1,2,1937,1,2,218,1,0,0,1,0,1,0,4,4
"644",50,4,2,1,4,1937,1,2,319,2,0,0,1,1,0,0,4,3
"645",50,4,2,1,1,1937,1,2,398,3,0,0,1,0,0,1,4,2
"646",50,4,2,1,2,1937,1,2,642,4,0,0,1,0,1,0,4,1
"647",51,3,4,5,3,3253,3,2,298,1,1,0,0,1,0,0,6,6
"648",51,3,4,5,5,3253,3,2,278,2,1,0,0,0,0,1,6,5
"649",51,3,4,5,4,3253,3,2,199,3,1,0,0,0,1,0,6,4
"650",51,3,4,5,3,3253,3,2,199,4,1,0,0,1,0,0,6,3
"651",51,3,4,5,5,3253,3,2,798,5,1,0,0,0,0,1,6,2
"652",51,3,4,5,3,3253,3,2,856,6,1,0,0,1,0,0,6,1
"653",52,3,1,2,1,2797,1,2,232,1,0,1,0,0,1,0,6,6
"654",52,3,1,2,2,2797,1,2,558,2,0,1,0,0,0,1,6,5
"655",52,3,1,2,3,2797,1,2,358,3,0,1,0,1,0,0,6,4
"656",52,3,1,2,1,2797,1,2,498,4,0,1,0,0,1,0,6,3
"657",52,3,1,2,2,2797,1,2,478,5,0,1,0,0,0,1,6,2
"658",52,3,1,2,3,2797,1,2,80,6,0,1,0,1,0,0,6,1
"659",53,5,2,6,2,1090,6,2,219,1,0,0,1,0,1,0,3,3
"660",53,5,2,6,6,1090,6,2,437,2,0,0,1,0,0,1,3,2
"661",53,5,2,6,5,1090,6,2,140,3,0,0,1,1,0,0,3,1
"662",54,4,6,8,6,1248,8,2,180,1,0,0,1,0,1,0,5,5
"663",54,4,6,8,8,1248,8,2,140,2,0,0,1,0,0,1,5,4
"664",54,4,6,8,4,1248,8,2,199,3,0,0,1,1,0,0,5,3
"665",54,4,6,8,6,1248,8,2,159,4,0,0,1,0,1,0,5,2
"666",54,4,6,8,8,1248,8,2,119,5,0,0,1,0,0,1,5,1
"667",55,3,2,1,2,2188,2,2,318,1,0,1,0,0,1,0,4,4
"668",55,3,2,1,1,2188,2,2,260,2,0,1,0,0,0,1,4,3
"669",55,3,2,1,3,2188,2,2,398,3,0,1,0,1,0,0,4,2
"670",55,3,2,1,2,2188,2,2,498,4,0,1,0,0,1,0,4,1
"671",56,5,2,1,1,1629,5,2,319,1,1,0,0,0,0,1,3,3
"672",56,5,2,1,2,1629,5,2,359,2,1,0,0,0,1,0,3,2
"673",56,5,2,1,5,1629,5,2,578,3,1,0,0,1,0,0,3,1
"674",57,2,6,1,1,4806,6,2,219,1,0,1,0,0,0,1,9,9
"675",57,2,6,1,6,4806,6,2,220,2,0,1,0,0,1,0,9,8
"676",57,2,6,1,2,4806,6,2,279,3,0,1,0,1,0,0,9,7
"677",57,2,6,1,1,4806,6,2,638,4,0,1,0,0,0,1,9,6
"678",57,2,6,1,6,4806,6,2,20,5,0,1,0,0,1,0,9,5
"679",57,2,6,1,1,4806,6,2,777,6,0,1,0,0,0,1,9,4
"680",57,2,6,1,6,4806,6,2,498,7,0,1,0,0,1,0,9,3
"681",57,2,6,1,2,4806,6,2,817,8,0,1,0,1,0,0,9,2
"682",57,2,6,1,6,4806,6,2,380,9,0,1,0,0,1,0,9,1
"683",58,6,2,3,6,1313,3,2,121,1,0,0,1,1,0,0,4,4
"684",58,6,2,3,3,1313,3,2,278,2,0,0,1,0,0,1,4,3
"685",58,6,2,3,2,1313,3,2,299,3,0,0,1,0,1,0,4,2
"686",58,6,2,3,3,1313,3,2,60,4,0,0,1,0,0,1,4,1
"687",59,3,2,1,3,2745,1,2,218,1,0,0,1,1,0,0,5,5
"688",59,3,2,1,1,2745,1,2,299,2,0,0,1,0,0,1,5,4
"689",59,3,2,1,2,2745,1,2,518,3,0,0,1,0,1,0,5,3
"690",59,3,2,1,3,2745,1,2,318,4,0,0,1,1,0,0,5,2
"691",59,3,2,1,1,2745,1,2,798,5,0,0,1,0,0,1,5,1
"692",60,4,1,2,1,1220,4,2,219,1,1,0,0,0,1,0,3,3
"693",60,4,1,2,4,1220,4,2,479,2,1,0,0,1,0,0,3,2
"694",60,4,1,2,2,1220,4,2,159,3,1,0,0,0,0,1,3,1
"695",61,3,1,5,1,3373,3,2,596,1,1,0,0,0,1,0,6,6
"696",61,3,1,5,3,3373,3,2,279,2,1,0,0,1,0,0,6,5
"697",61,3,1,5,5,3373,3,2,678,3,1,0,0,0,0,1,6,4
"698",61,3,1,5,3,3373,3,2,419,4,1,0,0,1,0,0,6,3
"699",61,3,1,5,1,3373,3,2,499,5,1,0,0,0,1,0,6,2
"700",61,3,1,5,3,3373,3,2,398,6,1,0,0,1,0,0,6,1
"701",62,5,6,10,10,990,10,2,578,1,0,0,1,0,0,1,2,2
"702",62,5,6,10,5,990,10,2,20,2,0,0,1,1,0,0,2,1
"703",63,4,5,10,10,956,10,2,319,1,0,0,1,0,0,1,2,2
"704",63,4,5,10,4,956,10,2,219,2,0,0,1,1,0,0,2,1
"705",64,2,1,5,5,2821,5,2,419,1,0,0,1,0,0,1,5,5
"706",64,2,1,5,2,2821,5,2,299,2,0,0,1,1,0,0,5,4
"707",64,2,1,5,1,2821,5,2,657,3,0,0,1,0,1,0,5,3
"708",64,2,1,5,2,2821,5,2,537,4,0,0,1,1,0,0,5,2
"709",64,2,1,5,5,2821,5,2,498,5,0,0,1,0,0,1,5,1
"710",65,5,3,2,3,2449,5,2,199,1,1,0,0,0,1,0,6,6
"711",65,5,3,2,5,2449,5,2,258,2,1,0,0,1,0,0,6,5
"712",65,5,3,2,3,2449,5,2,279,3,1,0,0,0,1,0,6,4
"713",65,5,3,2,5,2449,5,2,558,4,1,0,0,1,0,0,6,3
"714",65,5,3,2,2,2449,5,2,259,5,1,0,0,0,0,1,6,2
"715",65,5,3,2,3,2449,5,2,459,6,1,0,0,0,1,0,6,1
"716",66,8,6,2,6,1725,8,2,279,1,1,0,0,0,1,0,4,4
"717",66,8,6,2,8,1725,8,2,736,2,1,0,0,1,0,0,4,3
"718",66,8,6,2,2,1725,8,2,338,3,1,0,0,0,0,1,4,2
"719",66,8,6,2,8,1725,8,2,20,4,1,0,0,1,0,0,4,1
"720",67,1,10,2,2,1636,10,2,119,1,0,1,0,0,0,1,5,5
"721",67,1,10,2,10,1636,10,2,300,2,0,1,0,0,1,0,5,4
"722",67,1,10,2,1,1636,10,2,278,3,0,1,0,1,0,0,5,3
"723",67,1,10,2,2,1636,10,2,300,4,0,1,0,0,0,1,5,2
"724",67,1,10,2,10,1636,10,2,181,5,0,1,0,0,1,0,5,1
"725",68,5,2,4,5,1931,5,2,259,1,1,0,0,1,0,0,4,4
"726",68,5,2,4,4,1931,5,2,378,2,1,0,0,0,0,1,4,3
"727",68,5,2,4,2,1931,5,2,159,3,1,0,0,0,1,0,4,2
"728",68,5,2,4,5,1931,5,2,678,4,1,0,0,1,0,0,4,1
"729",69,6,4,5,6,1590,6,2,577,1,1,0,0,1,0,0,4,4
"730",69,6,4,5,5,1590,6,2,299,2,1,0,0,0,0,1,4,3
"731",69,6,4,5,4,1590,6,2,239,3,1,0,0,0,1,0,4,2
"732",69,6,4,5,6,1590,6,2,80,4,1,0,0,1,0,0,4,1
"733",70,1,4,3,1,1627,4,2,318,1,0,1,0,1,0,0,3,3
"734",70,1,4,3,3,1627,4,2,338,2,0,1,0,0,0,1,3,2
"735",70,1,4,3,4,1627,4,2,660,3,0,1,0,0,1,0,3,1
"736",71,5,6,3,6,1712,6,2,239,1,0,1,0,0,1,0,5,5
"737",71,5,6,3,5,1712,6,2,259,2,0,1,0,1,0,0,5,4
"738",71,5,6,3,3,1712,6,2,239,3,0,1,0,0,0,1,5,3
"739",71,5,6,3,5,1712,6,2,179,4,0,1,0,1,0,0,5,2
"740",71,5,6,3,6,1712,6,2,399,5,0,1,0,0,1,0,5,1
"741",72,6,4,1,6,1652,6,2,736,1,1,0,0,1,0,0,4,4
"742",72,6,4,1,1,1652,6,2,200,2,1,0,0,0,0,1,4,3
"743",72,6,4,1,4,1652,6,2,259,3,1,0,0,0,1,0,4,2
"744",72,6,4,1,6,1652,6,2,60,4,1,0,0,1,0,0,4,1
"745",73,1,5,6,5,3151,6,2,20,1,0,0,1,0,1,0,7,7
"746",73,1,5,6,1,3151,6,2,219,2,0,0,1,1,0,0,7,6
"747",73,1,5,6,6,3151,6,2,278,3,0,0,1,0,0,1,7,5
"748",73,1,5,6,1,3151,6,2,239,4,0,0,1,1,0,0,7,4
"749",73,1,5,6,6,3151,6,2,558,5,0,0,1,0,0,1,7,3
"750",73,1,5,6,5,3151,6,2,558,6,0,0,1,0,1,0,7,2
"751",73,1,5,6,6,3151,6,2,737,7,0,0,1,0,0,1,7,1
"752",74,6,2,4,4,1544,4,2,99,1,0,0,1,0,0,1,4,4
"753",74,6,2,4,6,1544,4,2,397,2,0,0,1,1,0,0,4,3
"754",74,6,2,4,2,1544,4,2,219,3,0,0,1,0,1,0,4,2
"755",74,6,2,4,4,1544,4,2,259,4,0,0,1,0,0,1,4,1
"756",75,4,6,5,6,2532,5,2,617,1,0,0,1,0,1,0,5,5
"757",75,4,6,5,5,2532,5,2,617,2,0,0,1,0,0,1,5,4
"758",75,4,6,5,4,2532,5,2,180,3,0,0,1,1,0,0,5,3
"759",75,4,6,5,6,2532,5,2,538,4,0,0,1,0,1,0,5,2
"760",75,4,6,5,5,2532,5,2,80,5,0,0,1,0,0,1,5,1
"761",76,3,1,8,8,1199,8,2,498,1,0,0,1,0,0,1,3,3
"762",76,3,1,8,3,1199,8,2,120,2,0,0,1,1,0,0,3,2
"763",76,3,1,8,1,1199,8,2,221,3,0,0,1,0,1,0,3,1
"764",77,5,2,4,5,1626,5,2,239,1,1,0,0,1,0,0,4,4
"765",77,5,2,4,2,1626,5,2,319,2,1,0,0,0,1,0,4,3
"766",77,5,2,4,4,1626,5,2,558,3,1,0,0,0,0,1,4,2
"767",77,5,2,4,5,1626,5,2,119,4,1,0,0,1,0,0,4,1
"768",78,3,8,5,8,2711,8,2,319,1,0,1,0,0,1,0,5,5
"769",78,3,8,5,5,2711,8,2,279,2,0,1,0,0,0,1,5,4
"770",78,3,8,5,3,2711,8,2,818,3,0,1,0,1,0,0,5,3
"771",78,3,8,5,5,2711,8,2,518,4,0,1,0,0,0,1,5,2
"772",78,3,8,5,8,2711,8,2,140,5,0,1,0,0,1,0,5,1
"773",79,1,3,4,4,1443,4,2,458,1,0,0,1,0,0,1,4,4
"774",79,1,3,4,1,1443,4,2,179,2,0,0,1,1,0,0,4,3
"775",79,1,3,4,3,1443,4,2,279,3,0,0,1,0,1,0,4,2
"776",79,1,3,4,4,1443,4,2,119,4,0,0,1,0,0,1,4,1
"777",80,2,6,3,6,1529,3,2,478,1,0,0,1,0,1,0,4,4
"778",80,2,6,3,3,1529,3,2,338,2,0,0,1,0,0,1,4,3
"779",80,2,6,3,2,1529,3,2,259,3,0,0,1,1,0,0,4,2
"780",80,2,6,3,6,1529,3,2,19,4,0,0,1,0,1,0,4,1
"781",81,2,6,5,2,1521,6,2,258,1,0,1,0,1,0,0,3,3
"782",81,2,6,5,5,1521,6,2,338,2,0,1,0,0,0,1,3,2
"783",81,2,6,5,6,1521,6,2,499,3,0,1,0,0,1,0,3,1
"784",82,4,2,6,2,1366,6,2,239,1,0,0,1,0,1,0,4,4
"785",82,4,2,6,6,1366,6,2,399,2,0,0,1,0,0,1,4,3
"786",82,4,2,6,4,1366,6,2,239,3,0,0,1,1,0,0,4,2
"787",82,4,2,6,2,1366,6,2,79,4,0,0,1,0,1,0,4,1
"788",83,2,4,5,4,1473,2,2,139,1,1,0,0,0,1,0,3,3
"789",83,2,4,5,5,1473,2,2,298,2,1,0,0,0,0,1,3,2
"790",83,2,4,5,2,1473,2,2,677,3,1,0,0,1,0,0,3,1
"791",84,6,1,3,1,2773,6,2,418,1,1,0,0,0,1,0,5,5
"792",84,6,1,3,3,2773,6,2,258,2,1,0,0,0,0,1,5,4
"793",84,6,1,3,6,2773,6,2,438,3,1,0,0,1,0,0,5,3
"794",84,6,1,3,3,2773,6,2,558,4,1,0,0,0,0,1,5,2
"795",84,6,1,3,6,2773,6,2,460,5,1,0,0,1,0,0,5,1
"796",85,5,4,3,5,1842,5,2,139,1,1,0,0,1,0,0,4,4
"797",85,5,4,3,3,1842,5,2,398,2,1,0,0,0,0,1,4,3
"798",85,5,4,3,4,1842,5,2,279,3,1,0,0,0,1,0,4,2
"799",85,5,4,3,5,1842,5,2,479,4,1,0,0,1,0,0,4,1
"800",86,5,1,2,5,1555,5,2,219,1,1,0,0,1,0,0,3,3
"801",86,5,1,2,2,1555,5,2,338,2,1,0,0,0,0,1,3,2
"802",86,5,1,2,1,1555,5,2,478,3,1,0,0,0,1,0,3,1
"803",87,1,6,2,2,1566,6,2,160,1,0,1,0,0,0,1,5,5
"804",87,1,6,2,6,1566,6,2,239,2,0,1,0,0,1,0,5,4
"805",87,1,6,2,1,1566,6,2,397,3,0,1,0,1,0,0,5,3
"806",87,1,6,2,2,1566,6,2,279,4,0,1,0,0,0,1,5,2
"807",87,1,6,2,6,1566,6,2,99,5,0,1,0,0,1,0,5,1
"808",88,5,2,10,5,946,10,2,120,1,0,0,1,1,0,0,3,3
"809",88,5,2,10,10,946,10,2,299,2,0,0,1,0,0,1,3,2
"810",88,5,2,10,2,946,10,2,81,3,0,0,1,0,1,0,3,1
"811",89,3,4,8,8,925,8,2,498,1,0,0,1,0,0,1,2,2
"812",89,3,4,8,3,925,8,2,159,2,0,0,1,1,0,0,2,1
"813",90,3,1,4,1,2980,3,2,159,1,1,0,0,0,1,0,9,9
"814",90,3,1,4,3,2980,3,2,180,2,1,0,0,1,0,0,9,8
"815",90,3,1,4,4,2980,3,2,260,3,1,0,0,0,0,1,9,7
"816",90,3,1,4,1,2980,3,2,379,4,1,0,0,0,1,0,9,6
"817",90,3,1,4,4,2980,3,2,239,5,1,0,0,0,0,1,9,5
"818",90,3,1,4,3,2980,3,2,101,6,1,0,0,1,0,0,9,4
"819",90,3,1,4,1,2980,3,2,339,7,1,0,0,0,1,0,9,3
"820",90,3,1,4,3,2980,3,2,339,8,1,0,0,1,0,0,9,2
"821",90,3,1,4,4,2980,3,2,358,9,1,0,0,0,0,1,9,1
"822",91,6,2,3,2,1649,3,2,359,1,0,0,1,0,1,0,5,5
"823",91,6,2,3,3,1649,3,2,180,2,0,0,1,0,0,1,5,4
"824",91,6,2,3,6,1649,3,2,339,3,0,0,1,1,0,0,5,3
"825",91,6,2,3,2,1649,3,2,338,4,0,0,1,0,1,0,5,2
"826",91,6,2,3,3,1649,3,2,39,5,0,0,1,0,0,1,5,1
"827",92,2,3,1,1,1818,1,2,239,1,0,0,1,0,0,1,4,4
"828",92,2,3,1,3,1818,1,2,338,2,0,0,1,0,1,0,4,3
"829",92,2,3,1,2,1818,1,2,399,3,0,0,1,1,0,0,4,2
"830",92,2,3,1,1,1818,1,2,460,4,0,0,1,0,0,1,4,1
"831",93,6,4,10,4,955,10,2,258,1,0,0,1,0,1,0,3,3
"832",93,6,4,10,10,955,10,2,239,2,0,0,1,0,0,1,3,2
"833",93,6,4,10,4,955,10,2,81,3,0,0,1,0,1,0,3,1
"834",94,1,10,3,10,1211,10,2,319,1,0,1,0,0,1,0,3,3
"835",94,1,10,3,3,1211,10,2,338,2,0,1,0,0,0,1,3,2
"836",94,1,10,3,1,1211,10,2,220,3,0,1,0,1,0,0,3,1
"837",95,2,1,3,2,2034,2,2,220,1,1,0,0,1,0,0,5,5
"838",95,2,1,3,3,2034,2,2,319,2,1,0,0,0,0,1,5,4
"839",95,2,1,3,1,2034,2,2,398,3,1,0,0,0,1,0,5,3
"840",95,2,1,3,3,2034,2,2,319,4,1,0,0,0,0,1,5,2
"841",95,2,1,3,2,2034,2,2,419,5,1,0,0,1,0,0,5,1
"842",96,1,4,2,1,1962,4,2,179,1,0,1,0,1,0,0,4,4
"843",96,1,4,2,4,1962,4,2,179,2,0,1,0,0,1,0,4,3
"844",96,1,4,2,2,1962,4,2,438,3,0,1,0,0,0,1,4,2
"845",96,1,4,2,4,1962,4,2,438,4,0,1,0,0,1,0,4,1
"846",97,2,3,4,4,2560,4,2,239,1,0,0,1,0,0,1,6,6
"847",97,2,3,4,3,2560,4,2,458,2,0,0,1,0,1,0,6,5
"848",97,2,3,4,2,2560,4,2,239,3,0,0,1,1,0,0,6,4
"849",97,2,3,4,4,2560,4,2,279,4,0,0,1,0,0,1,6,3
"850",97,2,3,4,3,2560,4,2,677,5,0,0,1,0,1,0,6,2
"851",97,2,3,4,4,2560,4,2,218,6,0,0,1,0,0,1,6,1
"852",98,6,4,2,4,1041,6,2,179,1,1,0,0,0,1,0,3,3
"853",98,6,4,2,6,1041,6,2,358,2,1,0,0,1,0,0,3,2
"854",98,6,4,2,2,1041,6,2,221,3,1,0,0,0,0,1,3,1
"855",99,1,6,2,6,1297,6,2,200,1,0,1,0,0,1,0,3,3
"856",99,1,6,2,2,1297,6,2,200,2,0,1,0,0,0,1,3,2
"857",99,1,6,2,1,1297,6,2,260,3,0,1,0,1,0,0,3,1
"858",100,4,1,5,5,1400,5,2,259,1,0,0,1,0,0,1,5,5
"859",100,4,1,5,4,1400,5,2,219,2,0,0,1,1,0,0,5,4
"860",100,4,1,5,1,1400,5,2,279,3,0,0,1,0,1,0,5,3
"861",100,4,1,5,4,1400,5,2,140,4,0,0,1,1,0,0,5,2
"862",100,4,1,5,5,1400,5,2,63,5,0,0,1,0,0,1,5,1
"863",1,5,3,2,5,2933,3,3,398,1,0,1,0,1,0,0,5,5
"864",1,5,3,2,3,2933,3,3,339,2,0,1,0,0,1,0,5,4
"865",1,5,3,2,2,2933,3,3,1415,3,0,1,0,0,0,1,5,3
"866",1,5,3,2,3,2933,3,3,20,4,0,1,0,0,1,0,5,2
"867",1,5,3,2,5,2933,3,3,242,5,0,1,0,1,0,0,5,1
"868",2,2,4,3,2,1965,4,3,257,1,0,1,0,1,0,0,5,5
"869",2,2,4,3,4,1965,4,3,220,2,0,1,0,0,1,0,5,4
"870",2,2,4,3,3,1965,4,3,297,3,0,1,0,0,0,1,5,3
"871",2,2,4,3,2,1965,4,3,399,4,0,1,0,1,0,0,5,2
"872",2,2,4,3,3,1965,4,3,380,5,0,1,0,0,0,1,5,1
"873",3,2,3,5,2,1469,5,3,258,1,0,0,1,1,0,0,3,3
"874",3,2,3,5,3,1469,5,3,379,2,0,0,1,0,1,0,3,2
"875",3,2,3,5,5,1469,5,3,539,3,0,0,1,0,0,1,3,1
"876",4,4,2,1,4,1376,4,3,437,1,1,0,0,1,0,0,2,2
"877",4,4,2,1,1,1376,4,3,598,2,1,0,0,0,0,1,2,1
"878",5,4,2,3,2,1910,4,3,300,1,1,0,0,0,1,0,4,4
"879",5,4,2,3,4,1910,4,3,558,2,1,0,0,1,0,0,4,3
"880",5,4,2,3,3,1910,4,3,379,3,1,0,0,0,0,1,4,2
"881",5,4,2,3,2,1910,4,3,175,4,1,0,0,0,1,0,4,1
"882",6,4,5,3,4,1331,5,3,155,1,0,1,0,1,0,0,4,4
"883",6,4,5,3,5,1331,5,3,379,2,0,1,0,0,1,0,4,3
"884",6,4,5,3,4,1331,5,3,316,3,0,1,0,1,0,0,4,2
"885",6,4,5,3,3,1331,5,3,120,4,0,1,0,0,0,1,4,1
"886",7,3,4,2,4,2662,4,3,199,1,0,1,0,0,1,0,5,5
"887",7,3,4,2,3,2662,4,3,40,2,0,1,0,1,0,0,5,4
"888",7,3,4,2,4,2662,4,3,225,3,0,1,0,0,1,0,5,3
"889",7,3,4,2,2,2662,4,3,267,4,0,1,0,0,0,1,5,2
"890",7,3,4,2,4,2662,4,3,1313,5,0,1,0,0,1,0,5,1
"891",8,2,4,1,4,2087,4,3,917,1,0,1,0,0,1,0,3,3
"892",8,2,4,1,1,2087,4,3,518,2,0,1,0,0,0,1,3,2
"893",8,2,4,1,4,2087,4,3,276,3,0,1,0,0,1,0,3,1
"894",9,5,1,2,1,1911,5,3,239,1,1,0,0,0,1,0,3,3
"895",9,5,1,2,5,1911,5,3,554,2,1,0,0,1,0,0,3,2
"896",9,5,1,2,2,1911,5,3,280,3,1,0,0,0,0,1,3,1
"897",10,1,2,4,1,2071,4,3,317,1,0,0,1,1,0,0,4,4
"898",10,1,2,4,2,2071,4,3,339,2,0,0,1,0,1,0,4,3
"899",10,1,2,4,4,2071,4,3,837,3,0,0,1,0,0,1,4,2
"900",10,1,2,4,2,2071,4,3,239,4,0,0,1,0,1,0,4,1
"901",11,3,4,2,3,2051,4,3,356,1,0,1,0,1,0,0,5,5
"902",11,3,4,2,4,2051,4,3,398,2,0,1,0,0,1,0,5,4
"903",11,3,4,2,2,2051,4,3,557,3,0,1,0,0,0,1,5,3
"904",11,3,4,2,4,2051,4,3,220,4,0,1,0,0,1,0,5,2
"905",11,3,4,2,3,2051,4,3,96,5,0,1,0,1,0,0,5,1
"906",12,1,3,4,3,3873,4,3,359,1,0,0,1,0,1,0,6,6
"907",12,1,3,4,1,3873,4,3,718,2,0,0,1,1,0,0,6,5
"908",12,1,3,4,4,3873,4,3,581,3,0,0,1,0,0,1,6,4
"909",12,1,3,4,1,3873,4,3,248,4,0,0,1,1,0,0,6,3
"910",12,1,3,4,3,3873,4,3,1135,5,0,0,1,0,1,0,6,2
"911",12,1,3,4,4,3873,4,3,361,6,0,0,1,0,0,1,6,1
"912",13,3,4,5,4,2511,4,3,337,1,0,1,0,0,1,0,4,4
"913",13,3,4,5,3,2511,4,3,459,2,0,1,0,1,0,0,4,3
"914",13,3,4,5,5,2511,4,3,518,3,0,1,0,0,0,1,4,2
"915",13,3,4,5,4,2511,4,3,817,4,0,1,0,0,1,0,4,1
"916",14,3,2,4,3,1389,4,3,359,1,0,0,1,1,0,0,2,2
"917",14,3,2,4,4,1389,4,3,499,2,0,0,1,0,0,1,2,1
"918",15,4,3,2,4,846,4,3,255,1,1,0,0,1,0,0,2,2
"919",15,4,3,2,2,846,4,3,199,2,1,0,0,0,0,1,2,1
"920",16,4,2,3,2,1803,3,3,318,1,0,0,1,0,1,0,4,4
"921",16,4,2,3,4,1803,3,3,399,2,0,0,1,1,0,0,4,3
"922",16,4,2,3,3,1803,3,3,698,3,0,0,1,0,0,1,4,2
"923",16,4,2,3,2,1803,3,3,38,4,0,0,1,0,1,0,4,1
"924",17,3,5,2,3,997,5,3,357,1,0,1,0,1,0,0,2,2
"925",17,3,5,2,2,997,5,3,140,2,0,1,0,0,0,1,2,1
"926",18,4,3,1,4,1627,3,3,817,1,0,1,0,1,0,0,3,3
"927",18,4,3,1,1,1627,3,3,199,2,0,1,0,0,0,1,3,2
"928",18,4,3,1,3,1627,3,3,20,3,0,1,0,0,1,0,3,1
"929",19,3,5,2,2,1458,5,3,82,1,0,1,0,0,0,1,1,1
"930",20,2,3,1,3,1532,2,3,439,1,1,0,0,0,1,0,1,1
"931",21,2,3,1,3,1764,1,3,239,1,0,0,1,0,1,0,2,2
"932",21,2,3,1,2,1764,1,3,577,2,0,0,1,1,0,0,2,1
"933",24,1,2,3,2,1963,3,3,1117,1,0,0,1,0,1,0,1,1
"934",25,3,4,1,4,1413,4,3,517,1,0,1,0,0,1,0,1,1
"935",26,2,4,3,4,1294,2,3,933,1,1,0,0,0,1,0,1,1
"936",29,4,2,3,4,1796,4,3,300,1,1,0,0,1,0,0,2,2
"937",29,4,2,3,3,1796,4,3,60,2,1,0,0,0,0,1,2,1
"938",31,4,3,2,3,1978,4,3,737,1,1,0,0,0,1,0,4,4
"939",31,4,3,2,4,1978,4,3,319,2,1,0,0,1,0,0,4,3
"940",31,4,3,2,2,1978,4,3,299,3,1,0,0,0,0,1,4,2
"941",31,4,3,2,3,1978,4,3,159,4,1,0,0,0,1,0,4,1
"942",33,3,4,2,4,1139,4,3,279,1,0,1,0,0,1,0,1,1
"943",34,2,5,3,2,1321,5,3,498,1,0,1,0,1,0,0,1,1
"944",35,3,2,4,2,2038,4,3,938,1,0,0,1,0,1,0,1,1
"945",36,2,4,3,4,4506,4,3,340,1,0,1,0,0,1,0,5,5
"946",36,2,4,3,2,4506,4,3,361,2,0,1,0,1,0,0,5,4
"947",36,2,4,3,3,4506,4,3,1637,3,0,1,0,0,0,1,5,3
"948",36,2,4,3,2,4506,4,3,399,4,0,1,0,1,0,0,5,2
"949",36,2,4,3,4,4506,4,3,1416,5,0,1,0,0,1,0,5,1
"950",37,3,2,4,3,3584,3,3,298,1,1,0,0,1,0,0,5,5
"951",37,3,2,4,2,3584,3,3,893,2,1,0,0,0,1,0,5,4
"952",37,3,2,4,4,3584,3,3,518,3,1,0,0,0,0,1,5,3
"953",37,3,2,4,3,3584,3,3,856,4,1,0,0,1,0,0,5,2
"954",37,3,2,4,2,3584,3,3,537,5,1,0,0,0,1,0,5,1
"955",39,2,3,5,3,1197,5,3,259,1,0,0,1,0,1,0,2,2
"956",39,2,3,5,2,1197,5,3,20,2,0,0,1,1,0,0,2,1
"957",40,4,2,3,3,1537,4,3,319,1,1,0,0,0,0,1,1,1
"958",42,3,4,1,4,1680,4,3,140,1,0,1,0,0,1,0,4,4
"959",42,3,4,1,3,1680,4,3,357,2,0,1,0,1,0,0,4,3
"960",42,3,4,1,1,1680,4,3,438,3,0,1,0,0,0,1,4,2
"961",42,3,4,1,4,1680,4,3,121,4,0,1,0,0,1,0,4,1
"962",43,2,3,4,2,1278,2,3,301,1,1,0,0,1,0,0,2,2
"963",43,2,3,4,4,1278,2,3,260,2,1,0,0,0,0,1,2,1
"964",44,2,5,3,2,1464,5,3,240,1,0,1,0,1,0,0,3,3
"965",44,2,5,3,3,1464,5,3,279,2,0,1,0,0,0,1,3,2
"966",44,2,5,3,5,1464,5,3,39,3,0,1,0,0,1,0,3,1
"967",47,4,3,1,1,2592,4,3,877,1,1,0,0,0,0,1,1,1
"968",48,2,3,4,3,1748,4,3,518,1,0,0,1,0,1,0,2,2
"969",48,2,3,4,4,1748,4,3,298,2,0,0,1,0,0,1,2,1
"970",49,3,2,4,3,2352,2,3,159,1,0,1,0,1,0,0,2,2
"971",49,3,2,4,2,2352,2,3,239,2,0,1,0,0,1,0,2,1
"972",50,2,4,3,4,1787,4,3,239,1,0,1,0,0,1,0,1,1
"973",51,3,1,2,2,3253,2,3,20,1,0,0,1,0,0,1,4,4
"974",51,3,1,2,3,3253,2,3,380,2,0,0,1,1,0,0,4,3
"975",51,3,1,2,2,3253,2,3,176,3,0,0,1,0,0,1,4,2
"976",51,3,1,2,1,3253,2,3,997,4,0,0,1,0,1,0,4,1
"977",52,1,3,4,4,1195,4,3,119,1,0,0,1,0,0,1,1,1
"978",53,4,3,2,4,983,4,3,20,1,1,0,0,1,0,0,1,1
"979",54,4,2,5,4,1206,5,3,20,1,0,0,1,1,0,0,3,3
"980",54,4,2,5,5,1206,5,3,229,2,0,0,1,0,0,1,3,2
"981",54,4,2,5,2,1206,5,3,21,3,0,0,1,0,1,0,3,1
"982",55,3,2,5,5,838,5,3,279,1,0,0,1,0,0,1,1,1
"983",56,4,3,5,3,2115,3,3,817,1,0,1,0,0,1,0,1,1
"984",58,1,2,3,3,986,3,3,20,1,0,0,1,0,0,1,1,1
"985",59,2,4,3,2,1049,4,3,260,1,0,1,0,1,0,0,1,1
"986",60,3,4,2,3,2613,4,3,339,1,0,1,0,1,0,0,3,3
"987",60,3,4,2,2,2613,4,3,416,2,0,1,0,0,0,1,3,2
"988",60,3,4,2,4,2613,4,3,958,3,0,1,0,0,1,0,3,1
"989",61,3,1,4,4,1464,4,3,20,1,0,0,1,0,0,1,1,1
"990",62,4,2,3,3,2993,4,3,1275,1,1,0,0,0,0,1,1,1
"991",63,1,2,3,1,2258,3,3,377,1,0,0,1,1,0,0,3,3
"992",63,1,2,3,3,2258,3,3,757,2,0,0,1,0,0,1,3,2
"993",63,1,2,3,2,2258,3,3,240,3,0,0,1,0,1,0,3,1
"994",64,4,1,3,3,1604,4,3,542,1,1,0,0,0,0,1,2,2
"995",64,4,1,3,1,1604,4,3,517,2,1,0,0,0,1,0,2,1
"996",65,4,5,2,5,1333,5,3,976,1,0,1,0,0,1,0,1,1
"997",69,4,3,2,2,3205,3,3,200,1,0,1,0,0,0,1,1,1
"998",71,3,2,4,3,1065,4,3,20,1,0,0,1,1,0,0,2,2
"999",71,3,2,4,4,1065,4,3,479,2,0,0,1,0,0,1,2,1
"1000",77,4,3,5,4,1671,5,3,281,1,0,0,1,1,0,0,2,2
"1001",77,4,3,5,5,1671,5,3,439,2,0,0,1,0,0,1,2,1
"1002",79,1,4,2,1,1357,4,3,41,1,0,1,0,1,0,0,1,1
"1003",80,1,2,4,1,2211,4,3,458,1,0,0,1,1,0,0,4,4
"1004",80,1,2,4,2,2211,4,3,196,2,0,0,1,0,1,0,4,3
"1005",80,1,2,4,4,2211,4,3,438,3,0,0,1,0,0,1,4,2
"1006",80,1,2,4,1,2211,4,3,139,4,0,0,1,1,0,0,4,1
"1007",82,4,3,2,4,2164,4,3,239,1,1,0,0,1,0,0,4,4
"1008",82,4,3,2,2,2164,4,3,299,2,1,0,0,0,0,1,4,3
"1009",82,4,3,2,4,2164,4,3,358,3,1,0,0,1,0,0,4,2
"1010",82,4,3,2,2,2164,4,3,578,4,1,0,0,0,0,1,4,1
"1011",83,4,2,1,1,1261,4,3,159,1,1,0,0,0,0,1,2,2
"1012",83,4,2,1,4,1261,4,3,181,2,1,0,0,1,0,0,2,1
"1013",84,3,2,5,3,1489,5,3,459,1,0,0,1,1,0,0,2,2
"1014",84,3,2,5,5,1489,5,3,377,2,0,0,1,0,0,1,2,1
"1015",86,4,3,2,2,1703,4,3,180,1,1,0,0,0,0,1,2,2
"1016",86,4,3,2,3,1703,4,3,718,2,1,0,0,0,1,0,2,1
"1017",87,5,3,1,5,1542,5,3,598,1,1,0,0,1,0,0,2,2
"1018",87,5,3,1,1,1542,5,3,459,2,1,0,0,0,0,1,2,1
"1019",88,3,4,5,5,1716,5,3,39,1,0,0,1,0,0,1,1,1
"1020",90,2,4,3,4,1342,3,3,268,1,0,0,1,0,1,0,2,2
"1021",90,2,4,3,3,1342,3,3,298,2,0,0,1,0,0,1,2,1
"1022",91,4,2,3,4,2051,4,3,340,1,1,0,0,1,0,0,1,1
"1023",93,4,3,1,1,1497,4,3,338,1,1,0,0,0,0,1,2,2
"1024",93,4,3,1,4,1497,4,3,618,2,1,0,0,1,0,0,2,1
"1025",94,1,3,2,2,1441,1,3,318,1,1,0,0,0,0,1,2,2
"1026",94,1,3,2,1,1441,1,3,159,2,1,0,0,1,0,0,2,1
"1027",96,3,4,5,3,1433,5,3,160,1,0,0,1,1,0,0,2,2
"1028",96,3,4,5,5,1433,5,3,499,2,0,0,1,0,0,1,2,1
"1029",97,4,1,2,2,1902,4,3,319,1,1,0,0,0,0,1,2,2
"1030",97,4,1,2,4,1902,4,3,578,2,1,0,0,1,0,0,2,1
"1031",98,2,4,3,2,2489,4,3,238,1,0,1,0,1,0,0,4,4
"1032",98,2,4,3,3,2489,4,3,817,2,0,1,0,0,0,1,4,3
"1033",98,2,4,3,4,2489,4,3,379,3,0,1,0,0,1,0,4,2
"1034",98,2,4,3,3,2489,4,3,117,4,0,1,0,0,0,1,4,1
"1035",99,4,2,1,4,4153,4,3,3328,1,1,0,0,1,0,0,3,3
"1036",99,4,2,1,1,4153,4,3,319,2,1,0,0,0,0,1,3,2
"1037",99,4,2,1,2,4153,4,3,20,3,1,0,0,0,1,0,3,1
"1038",100,2,4,3,4,999,2,3,518,1,1,0,0,0,1,0,1,1
"1039",1,1,3,2,1,2294,2,4,219,1,0,0,1,1,0,0,5,5
"1040",1,1,3,2,2,2294,2,4,279,2,0,0,1,0,0,1,5,4
"1041",1,1,3,2,3,2294,2,4,538,3,0,0,1,0,1,0,5,3
"1042",1,1,3,2,1,2294,2,4,338,4,0,0,1,1,0,0,5,2
"1043",1,1,3,2,2,2294,2,4,578,5,0,0,1,0,0,1,5,1
"1044",2,3,7,2,3,1683,7,4,180,1,0,1,0,1,0,0,4,4
"1045",2,3,7,2,2,1683,7,4,359,2,0,1,0,0,0,1,4,3
"1046",2,3,7,2,7,1683,7,4,658,3,0,1,0,0,1,0,4,2
"1047",2,3,7,2,3,1683,7,4,180,4,0,1,0,1,0,0,4,1
"1048",3,1,2,5,2,5797,2,4,338,1,0,1,0,0,1,0,8,8
"1049",3,1,2,5,5,5797,2,4,360,2,0,1,0,0,0,1,8,7
"1050",3,1,2,5,1,5797,2,4,372,3,0,1,0,1,0,0,8,6
"1051",3,1,2,5,5,5797,2,4,916,4,0,1,0,0,0,1,8,5
"1052",3,1,2,5,2,5797,2,4,937,5,0,1,0,0,1,0,8,4
"1053",3,1,2,5,1,5797,2,4,558,6,0,1,0,1,0,0,8,3
"1054",3,1,2,5,2,5797,2,4,1255,7,0,1,0,0,1,0,8,2
"1055",3,1,2,5,5,5797,2,4,246,8,0,1,0,0,0,1,8,1
"1056",4,3,1,2,3,1576,3,4,418,1,1,0,0,1,0,0,4,4
"1057",4,3,1,2,1,1576,3,4,459,2,1,0,0,0,1,0,4,3
"1058",4,3,1,2,2,1576,3,4,260,3,1,0,0,0,0,1,4,2
"1059",4,3,1,2,3,1576,3,4,79,4,1,0,0,1,0,0,4,1
"1060",5,1,3,2,3,4387,2,4,259,1,0,0,1,0,1,0,8,8
"1061",5,1,3,2,2,4387,2,4,257,2,0,0,1,0,0,1,8,7
"1062",5,1,3,2,1,4387,2,4,677,3,0,0,1,1,0,0,8,6
"1063",5,1,3,2,3,4387,2,4,558,4,0,0,1,0,1,0,8,5
"1064",5,1,3,2,1,4387,2,4,917,5,0,0,1,1,0,0,8,4
"1065",5,1,3,2,2,4387,2,4,498,6,0,0,1,0,0,1,8,3
"1066",5,1,3,2,3,4387,2,4,635,7,0,0,1,0,1,0,8,2
"1067",5,1,3,2,2,4387,2,4,20,8,0,0,1,0,0,1,8,1
"1068",6,2,3,1,2,3266,3,4,379,1,0,1,0,1,0,0,6,6
"1069",6,2,3,1,1,3266,3,4,359,2,0,1,0,0,0,1,6,5
"1070",6,2,3,1,3,3266,3,4,538,3,0,1,0,0,1,0,6,4
"1071",6,2,3,1,1,3266,3,4,256,4,0,1,0,0,0,1,6,3
"1072",6,2,3,1,2,3266,3,4,598,5,0,1,0,1,0,0,6,2
"1073",6,2,3,1,3,3266,3,4,738,6,0,1,0,0,1,0,6,1
"1074",7,1,5,2,1,2087,5,4,139,1,0,1,0,1,0,0,6,6
"1075",7,1,5,2,2,2087,5,4,418,2,0,1,0,0,0,1,6,5
"1076",7,1,5,2,5,2087,5,4,558,3,0,1,0,0,1,0,6,4
"1077",7,1,5,2,1,2087,5,4,200,4,0,1,0,1,0,0,6,3
"1078",7,1,5,2,5,2087,5,4,279,5,0,1,0,0,1,0,6,2
"1079",7,1,5,2,1,2087,5,4,40,6,0,1,0,1,0,0,6,1
"1080",8,1,2,4,2,2678,4,4,339,1,0,0,1,0,1,0,5,5
"1081",8,1,2,4,1,2678,4,4,917,2,0,0,1,1,0,0,5,4
"1082",8,1,2,4,4,2678,4,4,418,3,0,0,1,0,0,1,5,3
"1083",8,1,2,4,2,2678,4,4,538,4,0,0,1,0,1,0,5,2
"1084",8,1,2,4,4,2678,4,4,60,5,0,0,1,0,0,1,5,1
"1085",9,1,4,2,1,1705,4,4,359,1,0,1,0,1,0,0,3,3
"1086",9,1,4,2,2,1705,4,4,339,2,0,1,0,0,0,1,3,2
"1087",9,1,4,2,4,1705,4,4,698,3,0,1,0,0,1,0,3,1
"1088",10,5,4,6,4,2067,4,4,379,1,0,1,0,0,1,0,4,4
"1089",10,5,4,6,5,2067,4,4,239,2,0,1,0,1,0,0,4,3
"1090",10,5,4,6,6,2067,4,4,578,3,0,1,0,0,0,1,4,2
"1091",10,5,4,6,4,2067,4,4,518,4,0,1,0,0,1,0,4,1
"1092",11,5,7,2,7,1457,5,4,279,1,1,0,0,0,1,0,4,4
"1093",11,5,7,2,5,1457,5,4,242,2,1,0,0,1,0,0,4,3
"1094",11,5,7,2,2,1457,5,4,319,3,1,0,0,0,0,1,4,2
"1095",11,5,7,2,5,1457,5,4,260,4,1,0,0,1,0,0,4,1
"1096",12,1,10,2,1,1831,10,4,339,1,0,1,0,1,0,0,3,3
"1097",12,1,10,2,2,1831,10,4,518,2,0,1,0,0,0,1,3,2
"1098",12,1,10,2,10,1831,10,4,678,3,0,1,0,0,1,0,3,1
"1099",13,7,5,2,7,1779,7,4,140,1,1,0,0,1,0,0,6,6
"1100",13,7,5,2,2,1779,7,4,258,2,1,0,0,0,0,1,6,5
"1101",13,7,5,2,5,1779,7,4,439,3,1,0,0,0,1,0,6,4
"1102",13,7,5,2,7,1779,7,4,200,4,1,0,0,1,0,0,6,3
"1103",13,7,5,2,2,1779,7,4,239,5,1,0,0,0,0,1,6,2
"1104",13,7,5,2,7,1779,7,4,20,6,1,0,0,1,0,0,6,1
"1105",14,3,1,2,3,2835,3,4,259,1,1,0,0,1,0,0,6,6
"1106",14,3,1,2,2,2835,3,4,345,2,1,0,0,0,0,1,6,5
"1107",14,3,1,2,1,2835,3,4,439,3,1,0,0,0,1,0,6,4
"1108",14,3,1,2,2,2835,3,4,329,4,1,0,0,0,0,1,6,3
"1109",14,3,1,2,3,2835,3,4,597,5,1,0,0,1,0,0,6,2
"1110",14,3,1,2,2,2835,3,4,279,6,1,0,0,0,0,1,6,1
"1111",15,3,1,10,3,1012,10,4,160,1,0,0,1,1,0,0,2,2
"1112",15,3,1,10,10,1012,10,4,598,2,0,0,1,0,0,1,2,1
"1113",16,7,2,9,2,1661,9,4,398,1,0,0,1,0,1,0,3,3
"1114",16,7,2,9,9,1661,9,4,715,2,0,0,1,0,0,1,3,2
"1115",16,7,2,9,7,1661,9,4,219,3,0,0,1,1,0,0,3,1
"1116",17,6,3,4,6,1368,4,4,295,1,0,0,1,1,0,0,4,4
"1117",17,6,3,4,4,1368,4,4,417,2,0,0,1,0,0,1,4,3
"1118",17,6,3,4,3,1368,4,4,220,3,0,0,1,0,1,0,4,2
"1119",17,6,3,4,4,1368,4,4,140,4,0,0,1,0,0,1,4,1
"1120",18,1,3,6,1,1810,6,4,298,1,0,0,1,1,0,0,5,5
"1121",18,1,3,6,6,1810,6,4,399,2,0,0,1,0,0,1,5,4
"1122",18,1,3,6,3,1810,6,4,279,3,0,0,1,0,1,0,5,3
"1123",18,1,3,6,1,1810,6,4,378,4,0,0,1,1,0,0,5,2
"1124",18,1,3,6,6,1810,6,4,80,5,0,0,1,0,0,1,5,1
"1125",19,1,3,10,3,843,10,4,22,1,0,0,1,0,1,0,3,3
"1126",19,1,3,10,1,843,10,4,139,2,0,0,1,1,0,0,3,2
"1127",19,1,3,10,10,843,10,4,323,3,0,0,1,0,0,1,3,1
"1128",20,1,3,2,3,2478,3,4,219,1,0,1,0,0,1,0,4,4
"1129",20,1,3,2,2,2478,3,4,216,2,0,1,0,0,0,1,4,3
"1130",20,1,3,2,1,2478,3,4,438,3,0,1,0,1,0,0,4,2
"1131",20,1,3,2,3,2478,3,4,1296,4,0,1,0,0,1,0,4,1
"1132",21,1,5,7,5,2572,5,4,358,1,0,1,0,0,1,0,4,4
"1133",21,1,5,7,7,2572,5,4,300,2,0,1,0,0,0,1,4,3
"1134",21,1,5,7,1,2572,5,4,461,3,0,1,0,1,0,0,4,2
"1135",21,1,5,7,5,2572,5,4,498,4,0,1,0,0,1,0,4,1
"1136",22,3,1,9,1,1166,9,4,319,1,0,0,1,0,1,0,3,3
"1137",22,3,1,9,9,1166,9,4,379,2,0,0,1,0,0,1,3,2
"1138",22,3,1,9,3,1166,9,4,182,3,0,0,1,1,0,0,3,1
"1139",23,2,6,3,6,1621,6,4,299,1,0,1,0,0,1,0,4,4
"1140",23,2,6,3,2,1621,6,4,199,2,0,1,0,1,0,0,4,3
"1141",23,2,6,3,3,1621,6,4,219,3,0,1,0,0,0,1,4,2
"1142",23,2,6,3,6,1621,6,4,519,4,0,1,0,0,1,0,4,1
"1143",24,4,10,3,4,1563,10,4,179,1,0,1,0,1,0,0,3,3
"1144",24,4,10,3,3,1563,10,4,139,2,0,1,0,0,0,1,3,2
"1145",24,4,10,3,10,1563,10,4,858,3,0,1,0,0,1,0,3,1
"1146",25,3,1,2,1,1767,3,4,160,1,1,0,0,0,1,0,4,4
"1147",25,3,1,2,3,1767,3,4,456,2,1,0,0,1,0,0,4,3
"1148",25,3,1,2,2,1767,3,4,459,3,1,0,0,0,0,1,4,2
"1149",25,3,1,2,1,1767,3,4,337,4,1,0,0,0,1,0,4,1
"1150",26,10,3,1,10,957,10,4,697,1,1,0,0,1,0,0,1,1
"1151",27,1,7,4,1,1971,7,4,159,1,0,1,0,1,0,0,5,5
"1152",27,1,7,4,4,1971,7,4,537,2,0,1,0,0,0,1,5,4
"1153",27,1,7,4,7,1971,7,4,518,3,0,1,0,0,1,0,5,3
"1154",27,1,7,4,1,1971,7,4,240,4,0,1,0,1,0,0,5,2
"1155",27,1,7,4,4,1971,7,4,119,5,0,1,0,0,0,1,5,1
"1156",28,1,2,3,1,1565,3,4,199,1,0,0,1,1,0,0,4,4
"1157",28,1,2,3,3,1565,3,4,319,2,0,0,1,0,0,1,4,3
"1158",28,1,2,3,2,1565,3,4,439,3,0,0,1,0,1,0,4,2
"1159",28,1,2,3,3,1565,3,4,279,4,0,0,1,0,0,1,4,1
"1160",29,1,2,3,1,1272,3,4,160,1,0,0,1,1,0,0,3,3
"1161",29,1,2,3,3,1272,3,4,598,2,0,0,1,0,0,1,3,2
"1162",29,1,2,3,2,1272,3,4,219,3,0,0,1,0,1,0,3,1
"1163",30,3,10,1,3,876,10,4,179,1,0,1,0,1,0,0,2,2
"1164",30,3,10,1,10,876,10,4,399,2,0,1,0,0,1,0,2,1
"1165",31,1,2,5,2,2192,2,4,158,1,0,1,0,0,1,0,6,6
"1166",31,1,2,5,1,2192,2,4,399,2,0,1,0,1,0,0,6,5
"1167",31,1,2,5,5,2192,2,4,131,3,0,1,0,0,0,1,6,4
"1168",31,1,2,5,2,2192,2,4,697,4,0,1,0,0,1,0,6,3
"1169",31,1,2,5,5,2192,2,4,299,5,0,1,0,0,0,1,6,2
"1170",31,1,2,5,2,2192,2,4,40,6,0,1,0,0,1,0,6,1
"1171",32,1,3,6,3,1901,6,4,179,1,0,0,1,0,1,0,6,6
"1172",32,1,3,6,6,1901,6,4,101,2,0,0,1,0,0,1,6,5
"1173",32,1,3,6,1,1901,6,4,262,3,0,0,1,1,0,0,6,4
"1174",32,1,3,6,6,1901,6,4,438,4,0,0,1,0,0,1,6,3
"1175",32,1,3,6,3,1901,6,4,478,5,0,0,1,0,1,0,6,2
"1176",32,1,3,6,6,1901,6,4,20,6,0,0,1,0,0,1,6,1
"1177",33,4,2,1,2,1488,4,4,219,1,1,0,0,0,1,0,4,4
"1178",33,4,2,1,4,1488,4,4,239,2,1,0,0,1,0,0,4,3
"1179",33,4,2,1,1,1488,4,4,535,3,1,0,0,0,0,1,4,2
"1180",33,4,2,1,4,1488,4,4,159,4,1,0,0,1,0,0,4,1
"1181",34,1,2,7,2,1645,1,4,279,1,1,0,0,0,1,0,4,4
"1182",34,1,2,7,1,1645,1,4,379,2,1,0,0,1,0,0,4,3
"1183",34,1,2,7,7,1645,1,4,378,3,1,0,0,0,0,1,4,2
"1184",34,1,2,7,2,1645,1,4,100,4,1,0,0,0,1,0,4,1
"1185",35,3,1,5,3,2819,5,4,219,1,0,0,1,1,0,0,7,7
"1186",35,3,1,5,5,2819,5,4,358,2,0,0,1,0,0,1,7,6
"1187",35,3,1,5,1,2819,5,4,438,3,0,0,1,0,1,0,7,5
"1188",35,3,1,5,5,2819,5,4,339,4,0,0,1,0,0,1,7,4
"1189",35,3,1,5,3,2819,5,4,299,5,0,0,1,1,0,0,7,3
"1190",35,3,1,5,5,2819,5,4,336,6,0,0,1,0,0,1,7,2
"1191",35,3,1,5,3,2819,5,4,259,7,0,0,1,1,0,0,7,1
"1192",36,2,6,3,2,1426,3,4,319,1,0,0,1,1,0,0,3,3
"1193",36,2,6,3,6,1426,3,4,220,2,0,0,1,0,1,0,3,2
"1194",36,2,6,3,3,1426,3,4,558,3,0,0,1,0,0,1,3,1
"1195",37,3,4,1,4,1197,4,4,259,1,0,1,0,0,1,0,3,3
"1196",37,3,4,1,3,1197,4,4,240,2,0,1,0,1,0,0,3,2
"1197",37,3,4,1,4,1197,4,4,336,3,0,1,0,0,1,0,3,1
"1198",38,1,5,2,1,1793,2,4,278,1,0,0,1,1,0,0,5,5
"1199",38,1,5,2,2,1793,2,4,259,2,0,0,1,0,0,1,5,4
"1200",38,1,5,2,5,1793,2,4,538,3,0,0,1,0,1,0,5,3
"1201",38,1,5,2,1,1793,2,4,179,4,0,0,1,1,0,0,5,2
"1202",38,1,5,2,2,1793,2,4,119,5,0,0,1,0,0,1,5,1
"1203",39,3,4,1,3,890,4,4,198,1,0,1,0,1,0,0,2,2
"1204",39,3,4,1,4,890,4,4,339,2,0,1,0,0,1,0,2,1
"1205",40,1,2,4,1,808,4,4,79,1,0,0,1,1,0,0,2,2
"1206",40,1,2,4,4,808,4,4,259,2,0,0,1,0,0,1,2,1
"1207",41,10,2,1,2,988,10,4,99,1,1,0,0,0,1,0,2,2
"1208",41,10,2,1,10,988,10,4,418,2,1,0,0,1,0,0,2,1
"1209",42,5,3,2,5,2010,3,4,140,1,0,1,0,1,0,0,4,4
"1210",42,5,3,2,2,2010,3,4,279,2,0,1,0,0,0,1,4,3
"1211",42,5,3,2,3,2010,3,4,479,3,0,1,0,0,1,0,4,2
"1212",42,5,3,2,5,2010,3,4,618,4,0,1,0,1,0,0,4,1
"1213",43,5,10,2,10,1415,10,4,438,1,0,1,0,0,1,0,4,4
"1214",43,5,10,2,5,1415,10,4,199,2,0,1,0,1,0,0,4,3
"1215",43,5,10,2,2,1415,10,4,319,3,0,1,0,0,0,1,4,2
"1216",43,5,10,2,5,1415,10,4,80,4,0,1,0,1,0,0,4,1
"1217",44,5,3,10,3,1173,10,4,179,1,0,0,1,0,1,0,2,2
"1218",44,5,3,10,10,1173,10,4,737,2,0,0,1,0,0,1,2,1
"1219",45,3,1,9,1,1497,9,4,239,1,0,0,1,0,1,0,4,4
"1220",45,3,1,9,3,1497,9,4,239,2,0,0,1,1,0,0,4,3
"1221",45,3,1,9,9,1497,9,4,681,3,0,0,1,0,0,1,4,2
"1222",45,3,1,9,1,1497,9,4,21,4,0,0,1,0,1,0,4,1
"1223",46,1,3,5,3,3208,5,4,319,1,0,0,1,0,1,0,5,5
"1224",46,1,3,5,1,3208,5,4,200,2,0,0,1,1,0,0,5,4
"1225",46,1,3,5,5,3208,5,4,239,3,0,0,1,0,0,1,5,3
"1226",46,1,3,5,1,3208,5,4,476,4,0,0,1,1,0,0,5,2
"1227",46,1,3,5,5,3208,5,4,1334,5,0,0,1,0,0,1,5,1
"1228",47,1,5,2,1,1387,5,4,179,1,0,1,0,1,0,0,3,3
"1229",47,1,5,2,2,1387,5,4,377,2,0,1,0,0,0,1,3,2
"1230",47,1,5,2,5,1387,5,4,540,3,0,1,0,0,1,0,3,1
"1231",48,10,1,2,1,1328,10,4,159,1,1,0,0,0,1,0,3,3
"1232",48,10,1,2,10,1328,10,4,477,2,1,0,0,1,0,0,3,2
"1233",48,10,1,2,2,1328,10,4,379,3,1,0,0,0,0,1,3,1
"1234",49,3,1,2,3,1699,2,4,279,1,0,0,1,1,0,0,4,4
"1235",49,3,1,2,2,1699,2,4,239,2,0,0,1,0,0,1,4,3
"1236",49,3,1,2,1,1699,2,4,459,3,0,0,1,0,1,0,4,2
"1237",49,3,1,2,2,1699,2,4,379,4,0,0,1,0,0,1,4,1
"1238",50,3,10,4,3,1091,10,4,160,1,0,1,0,1,0,0,3,3
"1239",50,3,10,4,10,1091,10,4,280,2,0,1,0,0,1,0,3,2
"1240",50,3,10,4,4,1091,10,4,260,3,0,1,0,0,0,1,3,1
"1241",51,3,5,7,5,1789,5,4,199,1,0,1,0,0,1,0,4,4
"1242",51,3,5,7,7,1789,5,4,279,2,0,1,0,0,0,1,4,3
"1243",51,3,5,7,3,1789,5,4,298,3,0,1,0,1,0,0,4,2
"1244",51,3,5,7,5,1789,5,4,621,4,0,1,0,0,1,0,4,1
"1245",52,4,1,3,4,1070,4,4,219,1,1,0,0,1,0,0,3,3
"1246",52,4,1,3,3,1070,4,4,299,2,1,0,0,0,0,1,3,2
"1247",52,4,1,3,1,1070,4,4,80,3,1,0,0,0,1,0,3,1
"1248",53,7,3,1,3,1068,7,4,199,1,1,0,0,0,1,0,2,2
"1249",53,7,3,1,7,1068,7,4,598,2,1,0,0,1,0,0,2,1
"1250",54,1,4,5,4,1795,4,4,119,1,0,1,0,0,1,0,4,4
"1251",54,1,4,5,1,1795,4,4,359,2,0,1,0,1,0,0,4,3
"1252",54,1,4,5,5,1795,4,4,200,3,0,1,0,0,0,1,4,2
"1253",54,1,4,5,4,1795,4,4,739,4,0,1,0,0,1,0,4,1
"1254",55,1,3,2,1,1271,3,4,159,1,0,1,0,1,0,0,3,3
"1255",55,1,3,2,3,1271,3,4,398,2,0,1,0,0,1,0,3,2
"1256",55,1,3,2,2,1271,3,4,358,3,0,1,0,0,0,1,3,1
"1257",56,3,7,1,3,1103,3,4,298,1,1,0,0,1,0,0,3,3
"1258",56,3,7,1,7,1103,3,4,339,2,1,0,0,0,1,0,3,2
"1259",56,3,7,1,1,1103,3,4,100,3,1,0,0,0,0,1,3,1
"1260",57,10,1,2,10,687,10,4,398,1,1,0,0,1,0,0,1,1
"1261",58,3,4,2,3,1142,4,4,258,1,0,1,0,1,0,0,3,3
"1262",58,3,4,2,4,1142,4,4,357,2,0,1,0,0,1,0,3,2
"1263",58,3,4,2,2,1142,4,4,181,3,0,1,0,0,0,1,3,1
"1264",59,3,2,1,2,850,3,4,159,1,1,0,0,0,1,0,3,3
"1265",59,3,2,1,3,850,3,4,304,2,1,0,0,1,0,0,3,2
"1266",59,3,2,1,1,850,3,4,20,3,1,0,0,0,0,1,3,1
"1267",60,1,2,3,2,1168,3,4,119,1,0,0,1,0,1,0,3,3
"1268",60,1,2,3,1,1168,3,4,279,2,0,0,1,1,0,0,3,2
"1269",60,1,2,3,3,1168,3,4,457,3,0,0,1,0,0,1,3,1
"1270",61,3,2,1,2,1069,3,4,159,1,1,0,0,0,1,0,4,4
"1271",61,3,2,1,3,1069,3,4,216,2,1,0,0,1,0,0,4,3
"1272",61,3,2,1,1,1069,3,4,279,3,1,0,0,0,0,1,4,2
"1273",61,3,2,1,2,1069,3,4,99,4,1,0,0,0,1,0,4,1
"1274",62,5,3,1,5,3209,5,4,160,1,1,0,0,1,0,0,6,6
"1275",62,5,3,1,1,3209,5,4,298,2,1,0,0,0,0,1,6,5
"1276",62,5,3,1,5,3209,5,4,677,3,1,0,0,1,0,0,6,4
"1277",62,5,3,1,3,3209,5,4,539,4,1,0,0,0,1,0,6,3
"1278",62,5,3,1,1,3209,5,4,578,5,1,0,0,0,0,1,6,2
"1279",62,5,3,1,5,3209,5,4,498,6,1,0,0,1,0,0,6,1
"1280",63,3,5,7,3,1077,7,4,159,1,0,0,1,1,0,0,2,2
"1281",63,3,5,7,7,1077,7,4,578,2,0,0,1,0,0,1,2,1
"1282",64,3,4,5,3,2650,5,4,236,1,0,0,1,1,0,0,4,4
"1283",64,3,4,5,5,2650,5,4,1315,2,0,0,1,0,0,1,4,3
"1284",64,3,4,5,4,2650,5,4,259,3,0,0,1,0,1,0,4,2
"1285",64,3,4,5,5,2650,5,4,337,4,0,0,1,0,0,1,4,1
"1286",65,3,2,1,2,1925,3,4,220,1,1,0,0,0,1,0,5,5
"1287",65,3,2,1,3,1925,3,4,379,2,1,0,0,1,0,0,5,4
"1288",65,3,2,1,1,1925,3,4,439,3,1,0,0,0,0,1,5,3
"1289",65,3,2,1,2,1925,3,4,418,4,1,0,0,0,1,0,5,2
"1290",65,3,2,1,3,1925,3,4,59,5,1,0,0,1,0,0,5,1
"1291",66,3,1,2,3,1886,1,4,199,1,0,1,0,1,0,0,5,5
"1292",66,3,1,2,2,1886,1,4,199,2,0,1,0,0,0,1,5,4
"1293",66,3,1,2,1,1886,1,4,439,3,0,1,0,0,1,0,5,3
"1294",66,3,1,2,2,1886,1,4,498,4,0,1,0,0,0,1,5,2
"1295",66,3,1,2,1,1886,1,4,180,5,0,1,0,0,1,0,5,1
"1296",67,1,6,3,1,926,6,4,199,1,0,1,0,1,0,0,3,3
"1297",67,1,6,3,3,926,6,4,179,2,0,1,0,0,0,1,3,2
"1298",67,1,6,3,6,926,6,4,159,3,0,1,0,0,1,0,3,1
"1299",68,2,3,7,2,1229,3,4,159,1,0,1,0,1,0,0,3,3
"1300",68,2,3,7,3,1229,3,4,439,2,0,1,0,0,1,0,3,2
"1301",68,2,3,7,7,1229,3,4,260,3,0,1,0,0,0,1,3,1
"1302",69,10,5,3,5,822,10,4,199,1,1,0,0,0,1,0,2,2
"1303",69,10,5,3,10,822,10,4,358,2,1,0,0,1,0,0,2,1
"1304",70,4,1,3,4,1359,1,4,418,1,0,1,0,1,0,0,3,3
"1305",70,4,1,3,3,1359,1,4,258,2,0,1,0,0,0,1,3,2
"1306",70,4,1,3,4,1359,1,4,20,3,0,1,0,1,0,0,3,1
"1307",71,2,9,5,2,1233,9,4,120,1,0,1,0,1,0,0,2,2
"1308",71,2,9,5,9,1233,9,4,677,2,0,1,0,0,1,0,2,1
"1309",72,2,4,3,2,1562,4,4,298,1,0,1,0,1,0,0,3,3
"1310",72,2,4,3,4,1562,4,4,459,2,0,1,0,0,1,0,3,2
"1311",72,2,4,3,3,1562,4,4,259,3,0,1,0,0,0,1,3,1
"1312",73,3,1,5,1,2815,5,4,200,1,0,0,1,0,1,0,6,6
"1313",73,3,1,5,5,2815,5,4,318,2,0,0,1,0,0,1,6,5
"1314",73,3,1,5,3,2815,5,4,398,3,0,0,1,1,0,0,6,4
"1315",73,3,1,5,1,2815,5,4,418,4,0,0,1,0,1,0,6,3
"1316",73,3,1,5,5,2815,5,4,576,5,0,0,1,0,0,1,6,2
"1317",73,3,1,5,3,2815,5,4,418,6,0,0,1,1,0,0,6,1
"1318",74,3,4,1,4,1309,4,4,239,1,0,1,0,0,1,0,3,3
"1319",74,3,4,1,1,1309,4,4,379,2,0,1,0,0,0,1,3,2
"1320",74,3,4,1,4,1309,4,4,116,3,0,1,0,0,1,0,3,1
"1321",75,1,3,2,1,1282,3,4,119,1,0,1,0,1,0,0,3,3
"1322",75,1,3,2,2,1282,3,4,219,2,0,1,0,0,0,1,3,2
"1323",75,1,3,2,3,1282,3,4,640,3,0,1,0,0,1,0,3,1
"1324",76,2,4,3,4,1525,4,4,259,1,0,1,0,0,1,0,5,5
"1325",76,2,4,3,3,1525,4,4,238,2,0,1,0,0,0,1,5,4
"1326",76,2,4,3,2,1525,4,4,239,3,0,1,0,1,0,0,5,3
"1327",76,2,4,3,3,1525,4,4,200,4,0,1,0,0,0,1,5,2
"1328",76,2,4,3,4,1525,4,4,20,5,0,1,0,0,1,0,5,1
"1329",77,3,6,1,6,1249,3,4,179,1,1,0,0,0,1,0,4,4
"1330",77,3,6,1,3,1249,3,4,299,2,1,0,0,1,0,0,4,3
"1331",77,3,6,1,1,1249,3,4,259,3,1,0,0,0,0,1,4,2
"1332",77,3,6,1,3,1249,3,4,199,4,1,0,0,1,0,0,4,1
"1333",78,10,1,3,10,698,10,4,457,1,1,0,0,1,0,0,1,1
"1334",79,4,2,3,4,743,4,4,180,1,1,0,0,1,0,0,3,3
"1335",79,4,2,3,3,743,4,4,199,2,1,0,0,0,0,1,3,2
"1336",79,4,2,3,4,743,4,4,80,3,1,0,0,1,0,0,3,1
"1337",80,10,2,5,10,630,10,4,358,1,1,0,0,1,0,0,1,1
"1338",81,4,9,1,9,1124,9,4,857,1,0,1,0,0,1,0,1,1
"1339",82,2,10,1,10,810,10,4,319,1,0,1,0,0,1,0,2,2
"1340",82,2,10,1,2,810,10,4,20,2,0,1,0,1,0,0,2,1
"1341",83,6,3,2,3,995,6,4,159,1,1,0,0,0,1,0,3,3
"1342",83,6,3,2,2,995,6,4,120,2,1,0,0,0,0,1,3,2
"1343",83,6,3,2,6,995,6,4,318,3,1,0,0,1,0,0,3,1
"1344",84,2,6,5,2,761,6,4,199,1,0,1,0,1,0,0,2,2
"1345",84,2,6,5,6,761,6,4,295,2,0,1,0,0,1,0,2,1
"1346",85,3,1,10,3,632,10,4,123,1,0,0,1,1,0,0,2,2
"1347",85,3,1,10,10,632,10,4,233,2,0,0,1,0,0,1,2,1
"1348",86,3,4,1,4,650,4,4,338,1,0,1,0,0,1,0,1,1
"1349",87,3,1,5,1,1537,5,4,259,1,0,0,1,0,1,0,3,3
"1350",87,3,1,5,3,1537,5,4,358,2,0,0,1,1,0,0,3,2
"1351",87,3,1,5,5,1537,5,4,640,3,0,0,1,0,0,1,3,1
"1352",88,1,3,2,1,770,2,4,104,1,0,0,1,1,0,0,2,2
"1353",88,1,3,2,2,770,2,4,298,2,0,0,1,0,0,1,2,1
"1354",89,5,1,10,5,629,10,4,90,1,0,0,1,1,0,0,2,2
"1355",89,5,1,10,10,629,10,4,279,2,0,0,1,0,0,1,2,1
"1356",90,3,6,1,6,719,6,4,179,1,0,1,0,0,1,0,2,2
"1357",90,3,6,1,3,719,6,4,260,2,0,1,0,1,0,0,2,1
"1358",91,5,2,1,2,925,5,4,160,1,1,0,0,0,1,0,3,3
"1359",91,5,2,1,5,925,5,4,239,2,1,0,0,1,0,0,3,2
"1360",91,5,2,1,1,925,5,4,219,3,1,0,0,0,0,1,3,1
"1361",92,3,4,1,4,984,4,4,239,1,0,1,0,0,1,0,2,2
"1362",92,3,4,1,3,984,4,4,200,2,0,1,0,1,0,0,2,1
"1363",93,1,7,3,7,961,3,4,239,1,0,0,1,0,1,0,3,3
"1364",93,1,7,3,3,961,3,4,239,2,0,0,1,0,0,1,3,2
"1365",93,1,7,3,1,961,3,4,181,3,0,0,1,1,0,0,3,1
"1366",94,4,2,7,4,683,4,4,398,1,1,0,0,1,0,0,2,2
"1367",94,4,2,7,2,683,4,4,21,2,1,0,0,0,1,0,2,1
"1368",95,2,1,9,1,1120,9,4,159,1,0,0,1,0,1,0,3,3
"1369",95,2,1,9,2,1120,9,4,299,2,0,0,1,1,0,0,3,2
"1370",95,2,1,9,9,1120,9,4,358,3,0,0,1,0,0,1,3,1
"1371",96,2,1,3,1,1358,3,4,179,1,0,0,1,0,1,0,4,4
"1372",96,2,1,3,2,1358,3,4,339,2,0,0,1,1,0,0,4,3
"1373",96,2,1,3,3,1358,3,4,479,3,0,0,1,0,0,1,4,2
"1374",96,2,1,3,1,1358,3,4,21,4,0,0,1,0,1,0,4,1
"1375",97,1,2,4,2,1724,2,4,339,1,0,1,0,0,1,0,4,4
"1376",97,1,2,4,1,1724,2,4,219,2,0,1,0,1,0,0,4,3
"1377",97,1,2,4,4,1724,2,4,458,3,0,1,0,0,0,1,4,2
"1378",97,1,2,4,2,1724,2,4,478,4,0,1,0,0,1,0,4,1
"1379",98,3,1,5,3,1635,5,4,279,1,0,0,1,1,0,0,3,3
"1380",98,3,1,5,1,1635,5,4,518,2,0,0,1,0,1,0,3,2
"1381",98,3,1,5,5,1635,5,4,499,3,0,0,1,0,0,1,3,1
"1382",99,2,1,3,1,1924,3,4,278,1,0,0,1,0,1,0,5,5
"1383",99,2,1,3,2,1924,3,4,279,2,0,0,1,1,0,0,5,4
"1384",99,2,1,3,3,1924,3,4,439,3,0,0,1,0,0,1,5,3
"1385",99,2,1,3,1,1924,3,4,418,4,0,0,1,0,1,0,5,2
"1386",99,2,1,3,3,1924,3,4,100,5,0,0,1,0,0,1,5,1
"1387",100,1,10,2,10,1103,10,4,179,1,0,1,0,0,1,0,3,3
"1388",100,1,10,2,1,1103,10,4,219,2,0,1,0,1,0,0,3,2
"1389",100,1,10,2,10,1103,10,4,378,3,0,1,0,0,1,0,3,1
"1390",1,2,6,4,4,3302,4,5,238,1,0,0,1,0,0,1,8,8
"1391",1,2,6,4,2,3302,4,5,318,2,0,0,1,1,0,0,8,7
"1392",1,2,6,4,6,3302,4,5,478,3,0,0,1,0,1,0,8,6
"1393",1,2,6,4,4,3302,4,5,598,4,0,0,1,0,0,1,8,5
"1394",1,2,6,4,2,3302,4,5,418,5,0,0,1,1,0,0,8,4
"1395",1,2,6,4,6,3302,4,5,252,6,0,0,1,0,1,0,8,3
"1396",1,2,6,4,4,3302,4,5,219,7,0,0,1,0,0,1,8,2
"1397",1,2,6,4,6,3302,4,5,100,8,0,0,1,0,1,0,8,1
"1398",2,2,3,6,3,2106,6,5,538,1,0,0,1,0,1,0,4,4
"1399",2,2,3,6,2,2106,6,5,399,2,0,0,1,1,0,0,4,3
"1400",2,2,3,6,6,2106,6,5,597,3,0,0,1,0,0,1,4,2
"1401",2,2,3,6,3,2106,6,5,97,4,0,0,1,0,1,0,4,1
"1402",3,5,2,6,2,2302,5,5,377,1,1,0,0,0,1,0,5,5
"1403",3,5,2,6,5,2302,5,5,378,2,1,0,0,1,0,0,5,4
"1404",3,5,2,6,6,2302,5,5,519,3,1,0,0,0,0,1,5,3
"1405",3,5,2,6,2,2302,5,5,219,4,1,0,0,0,1,0,5,2
"1406",3,5,2,6,5,2302,5,5,378,5,1,0,0,1,0,0,5,1
"1407",4,6,7,5,5,3252,5,5,358,1,0,0,1,0,0,1,6,6
"1408",4,6,7,5,6,3252,5,5,299,2,0,0,1,1,0,0,6,5
"1409",4,6,7,5,5,3252,5,5,289,3,0,0,1,0,0,1,6,4
"1410",4,6,7,5,7,3252,5,5,718,4,0,0,1,0,1,0,6,3
"1411",4,6,7,5,5,3252,5,5,678,5,0,0,1,0,0,1,6,2
"1412",4,6,7,5,6,3252,5,5,221,6,0,0,1,1,0,0,6,1
"1413",5,6,5,1,1,3067,6,5,219,1,1,0,0,0,0,1,5,5
"1414",5,6,5,1,6,3067,6,5,462,2,1,0,0,1,0,0,5,4
"1415",5,6,5,1,5,3067,6,5,1116,3,1,0,0,0,1,0,5,3
"1416",5,6,5,1,1,3067,6,5,579,4,1,0,0,0,0,1,5,2
"1417",5,6,5,1,6,3067,6,5,20,5,1,0,0,1,0,0,5,1
"1418",6,6,5,3,6,3070,5,5,398,1,0,1,0,1,0,0,6,6
"1419",6,6,5,3,3,3070,5,5,538,2,0,1,0,0,0,1,6,5
"1420",6,6,5,3,5,3070,5,5,339,3,0,1,0,0,1,0,6,4
"1421",6,6,5,3,6,3070,5,5,238,4,0,1,0,1,0,0,6,3
"1422",6,6,5,3,5,3070,5,5,818,5,0,1,0,0,1,0,6,2
"1423",6,6,5,3,6,3070,5,5,160,6,0,1,0,1,0,0,6,1
"1424",7,8,4,5,8,1422,8,5,478,1,1,0,0,1,0,0,3,3
"1425",7,8,4,5,5,1422,8,5,398,2,1,0,0,0,0,1,3,2
"1426",7,8,4,5,4,1422,8,5,159,3,1,0,0,0,1,0,3,1
"1427",8,2,6,3,2,2518,6,5,578,1,0,1,0,1,0,0,5,5
"1428",8,2,6,3,3,2518,6,5,378,2,0,1,0,0,0,1,5,4
"1429",8,2,6,3,6,2518,6,5,498,3,0,1,0,0,1,0,5,3
"1430",8,2,6,3,2,2518,6,5,360,4,0,1,0,1,0,0,5,2
"1431",8,2,6,3,3,2518,6,5,222,5,0,1,0,0,0,1,5,1
"1432",9,3,6,4,6,2643,4,5,697,1,0,0,1,0,1,0,5,5
"1433",9,3,6,4,4,2643,4,5,457,2,0,0,1,0,0,1,5,4
"1434",9,3,6,4,3,2643,4,5,460,3,0,0,1,1,0,0,5,3
"1435",9,3,6,4,6,2643,4,5,418,4,0,0,1,0,1,0,5,2
"1436",9,3,6,4,4,2643,4,5,140,5,0,0,1,0,0,1,5,1
"1437",10,3,6,2,3,3837,3,5,358,1,1,0,0,1,0,0,6,6
"1438",10,3,6,2,2,3837,3,5,460,2,1,0,0,0,0,1,6,5
"1439",10,3,6,2,6,3837,3,5,479,3,1,0,0,0,1,0,6,4
"1440",10,3,6,2,3,3837,3,5,617,4,1,0,0,1,0,0,6,3
"1441",10,3,6,2,2,3837,3,5,857,5,1,0,0,0,0,1,6,2
"1442",10,3,6,2,6,3837,3,5,339,6,1,0,0,0,1,0,6,1
"1443",11,3,5,2,2,3060,3,5,457,1,1,0,0,0,0,1,4,4
"1444",11,3,5,2,3,3060,3,5,459,2,1,0,0,1,0,0,4,3
"1445",11,3,5,2,5,3060,3,5,837,3,1,0,0,0,1,0,4,2
"1446",11,3,5,2,3,3060,3,5,897,4,1,0,0,1,0,0,4,1
"1447",12,5,6,8,5,2252,8,5,418,1,0,0,1,1,0,0,4,4
"1448",12,5,6,8,8,2252,8,5,699,2,0,0,1,0,0,1,4,3
"1449",12,5,6,8,6,2252,8,5,378,3,0,0,1,0,1,0,4,2
"1450",12,5,6,8,8,2252,8,5,279,4,0,0,1,0,0,1,4,1
"1451",13,6,2,8,2,2049,8,5,180,1,0,0,1,0,1,0,3,3
"1452",13,6,2,8,6,2049,8,5,837,2,0,0,1,1,0,0,3,2
"1453",13,6,2,8,8,2049,8,5,599,3,0,0,1,0,0,1,3,1
"1454",14,5,1,2,1,2444,5,5,218,1,1,0,0,0,1,0,6,6
"1455",14,5,1,2,5,2444,5,5,200,2,1,0,0,1,0,0,6,5
"1456",14,5,1,2,2,2444,5,5,339,3,1,0,0,0,0,1,6,4
"1457",14,5,1,2,5,2444,5,5,578,4,1,0,0,1,0,0,6,3
"1458",14,5,1,2,1,2444,5,5,538,5,1,0,0,0,1,0,6,2
"1459",14,5,1,2,5,2444,5,5,19,6,1,0,0,1,0,0,6,1
"1460",15,5,3,2,3,1842,5,5,517,1,1,0,0,0,1,0,3,3
"1461",15,5,3,2,2,1842,5,5,319,2,1,0,0,0,0,1,3,2
"1462",15,5,3,2,5,1842,5,5,678,3,1,0,0,1,0,0,3,1
"1463",16,6,2,8,2,1721,8,5,598,1,0,0,1,0,1,0,3,3
"1464",16,6,2,8,6,1721,8,5,319,2,0,0,1,1,0,0,3,2
"1465",16,6,2,8,8,1721,8,5,458,3,0,0,1,0,0,1,3,1
"1466",17,2,5,3,2,2010,5,5,219,1,0,1,0,1,0,0,4,4
"1467",17,2,5,3,3,2010,5,5,479,2,0,1,0,0,0,1,4,3
"1468",17,2,5,3,5,2010,5,5,259,3,0,1,0,0,1,0,4,2
"1469",17,2,5,3,2,2010,5,5,599,4,0,1,0,1,0,0,4,1
"1470",18,2,6,3,3,2310,6,5,338,1,0,1,0,0,0,1,5,5
"1471",18,2,6,3,2,2310,6,5,379,2,0,1,0,1,0,0,5,4
"1472",18,2,6,3,6,2310,6,5,379,3,0,1,0,0,1,0,5,3
"1473",18,2,6,3,2,2310,6,5,779,4,0,1,0,1,0,0,5,2
"1474",18,2,6,3,3,2310,6,5,40,5,0,1,0,0,0,1,5,1
"1475",19,6,5,2,5,3422,5,5,338,1,0,1,0,0,1,0,6,6
"1476",19,6,5,2,6,3422,5,5,259,2,0,1,0,1,0,0,6,5
"1477",19,6,5,2,2,3422,5,5,558,3,0,1,0,0,0,1,6,4
"1478",19,6,5,2,5,3422,5,5,299,4,0,1,0,0,1,0,6,3
"1479",19,6,5,2,6,3422,5,5,319,5,0,1,0,1,0,0,6,2
"1480",19,6,5,2,5,3422,5,5,1216,6,0,1,0,0,1,0,6,1
"1481",20,5,2,4,2,2119,5,5,378,1,1,0,0,0,1,0,4,4
"1482",20,5,2,4,5,2119,5,5,300,2,1,0,0,1,0,0,4,3
"1483",20,5,2,4,4,2119,5,5,657,3,1,0,0,0,0,1,4,2
"1484",20,5,2,4,5,2119,5,5,459,4,1,0,0,1,0,0,4,1
"1485",21,6,2,8,6,2345,8,5,477,1,0,0,1,1,0,0,4,4
"1486",21,6,2,8,8,2345,8,5,798,2,0,0,1,0,0,1,4,3
"1487",21,6,2,8,2,2345,8,5,360,3,0,0,1,0,1,0,4,2
"1488",21,6,2,8,8,2345,8,5,240,4,0,0,1,0,0,1,4,1
"1489",22,8,2,6,8,1864,8,5,279,1,1,0,0,1,0,0,5,5
"1490",22,8,2,6,6,1864,8,5,339,2,1,0,0,0,0,1,5,4
"1491",22,8,2,6,8,1864,8,5,419,3,1,0,0,1,0,0,5,3
"1492",22,8,2,6,2,1864,8,5,359,4,1,0,0,0,1,0,5,2
"1493",22,8,2,6,8,1864,8,5,59,5,1,0,0,1,0,0,5,1
"1494",23,3,8,4,4,1869,8,5,278,1,0,1,0,0,0,1,4,4
"1495",23,3,8,4,3,1869,8,5,458,2,0,1,0,1,0,0,4,3
"1496",23,3,8,4,8,1869,8,5,598,3,0,1,0,0,1,0,4,2
"1497",23,3,8,4,4,1869,8,5,180,4,0,1,0,0,0,1,4,1
"1498",24,3,2,8,2,1671,8,5,258,1,0,0,1,0,1,0,3,3
"1499",24,3,2,8,3,1671,8,5,318,2,0,0,1,1,0,0,3,2
"1500",24,3,2,8,8,1671,8,5,758,3,0,0,1,0,0,1,3,1
"1501",25,2,3,8,3,1510,8,5,398,1,0,0,1,0,1,0,4,4
"1502",25,2,3,8,2,1510,8,5,339,2,0,0,1,1,0,0,4,3
"1503",25,2,3,8,8,1510,8,5,358,3,0,0,1,0,0,1,4,2
"1504",25,2,3,8,3,1510,8,5,19,4,0,0,1,0,1,0,4,1
"1505",26,2,3,8,3,1381,8,5,258,1,0,0,1,0,1,0,3,3
"1506",26,2,3,8,2,1381,8,5,239,2,0,0,1,1,0,0,3,2
"1507",26,2,3,8,8,1381,8,5,519,3,0,0,1,0,0,1,3,1
"1508",27,5,4,2,4,1486,5,5,278,1,1,0,0,0,1,0,4,4
"1509",27,5,4,2,5,1486,5,5,279,2,1,0,0,1,0,0,4,3
"1510",27,5,4,2,2,1486,5,5,339,3,1,0,0,0,0,1,4,2
"1511",27,5,4,2,4,1486,5,5,240,4,1,0,0,0,1,0,4,1
"1512",28,6,5,3,5,2698,3,5,398,1,0,0,1,0,1,0,6,6
"1513",28,6,5,3,6,2698,3,5,278,2,0,0,1,1,0,0,6,5
"1514",28,6,5,3,3,2698,3,5,340,3,0,0,1,0,0,1,6,4
"1515",28,6,5,3,5,2698,3,5,757,4,0,0,1,0,1,0,6,3
"1516",28,6,5,3,3,2698,3,5,379,5,0,0,1,0,0,1,6,2
"1517",28,6,5,3,6,2698,3,5,61,6,0,0,1,1,0,0,6,1
"1518",29,4,2,5,5,2424,5,5,240,1,0,0,1,0,0,1,4,4
"1519",29,4,2,5,4,2424,5,5,360,2,0,0,1,1,0,0,4,3
"1520",29,4,2,5,2,2424,5,5,679,3,0,0,1,0,1,0,4,2
"1521",29,4,2,5,5,2424,5,5,798,4,0,0,1,0,0,1,4,1
"1522",30,2,5,3,2,1885,5,5,378,1,0,1,0,1,0,0,3,3
"1523",30,2,5,3,3,1885,5,5,459,2,0,1,0,0,0,1,3,2
"1524",30,2,5,3,5,1885,5,5,717,3,0,1,0,0,1,0,3,1
"1525",31,2,3,4,2,4259,3,5,238,1,0,1,0,1,0,0,9,9
"1526",31,2,3,4,4,4259,3,5,458,2,0,1,0,0,0,1,9,8
"1527",31,2,3,4,3,4259,3,5,279,3,0,1,0,0,1,0,9,7
"1528",31,2,3,4,2,4259,3,5,1017,4,0,1,0,1,0,0,9,6
"1529",31,2,3,4,3,4259,3,5,277,5,0,1,0,0,1,0,9,5
"1530",31,2,3,4,4,4259,3,5,379,6,0,1,0,0,0,1,9,4
"1531",31,2,3,4,2,4259,3,5,558,7,0,1,0,1,0,0,9,3
"1532",31,2,3,4,3,4259,3,5,200,8,0,1,0,0,1,0,9,2
"1533",31,2,3,4,2,4259,3,5,259,9,0,1,0,1,0,0,9,1
"1534",32,8,2,6,8,1794,8,5,219,1,1,0,0,1,0,0,3,3
"1535",32,8,2,6,6,1794,8,5,558,2,1,0,0,0,0,1,3,2
"1536",32,8,2,6,2,1794,8,5,679,3,1,0,0,0,1,0,3,1
"1537",33,4,5,2,5,1464,4,5,398,1,1,0,0,0,1,0,3,3
"1538",33,4,5,2,4,1464,4,5,352,2,1,0,0,1,0,0,3,2
"1539",33,4,5,2,2,1464,4,5,418,3,1,0,0,0,0,1,3,1
"1540",34,6,8,2,6,1693,8,5,477,1,0,1,0,1,0,0,4,4
"1541",34,6,8,2,2,1693,8,5,334,2,0,1,0,0,0,1,4,3
"1542",34,6,8,2,8,1693,8,5,453,3,0,1,0,0,1,0,4,2
"1543",34,6,8,2,2,1693,8,5,20,4,0,1,0,0,0,1,4,1
"1544",35,6,3,5,3,1780,5,5,556,1,0,0,1,0,1,0,4,4
"1545",35,6,3,5,5,1780,5,5,379,2,0,0,1,0,0,1,4,3
"1546",35,6,3,5,6,1780,5,5,338,3,0,0,1,1,0,0,4,2
"1547",35,6,3,5,3,1780,5,5,139,4,0,0,1,0,1,0,4,1
"1548",36,2,5,6,5,2779,5,5,518,1,0,1,0,0,1,0,5,5
"1549",36,2,5,6,6,2779,5,5,160,2,0,1,0,0,0,1,5,4
"1550",36,2,5,6,2,2779,5,5,458,3,0,1,0,1,0,0,5,3
"1551",36,2,5,6,6,2779,5,5,737,4,0,1,0,0,0,1,5,2
"1552",36,2,5,6,5,2779,5,5,458,5,0,1,0,0,1,0,5,1
"1553",37,2,1,8,1,1477,8,5,478,1,0,0,1,0,1,0,3,3
"1554",37,2,1,8,2,1477,8,5,358,2,0,0,1,1,0,0,3,2
"1555",37,2,1,8,8,1477,8,5,341,3,0,0,1,0,0,1,3,1
"1556",38,3,6,2,2,2878,6,5,100,1,0,1,0,0,0,1,6,6
"1557",38,3,6,2,3,2878,6,5,378,2,0,1,0,1,0,0,6,5
"1558",38,3,6,2,6,2878,6,5,378,3,0,1,0,0,1,0,6,4
"1559",38,3,6,2,2,2878,6,5,538,4,0,1,0,0,0,1,6,3
"1560",38,3,6,2,3,2878,6,5,698,5,0,1,0,1,0,0,6,2
"1561",38,3,6,2,6,2878,6,5,219,6,0,1,0,0,1,0,6,1
"1562",39,1,6,3,1,1884,6,5,458,1,0,1,0,1,0,0,3,3
"1563",39,1,6,3,3,1884,6,5,459,2,0,1,0,0,0,1,3,2
"1564",39,1,6,3,6,1884,6,5,638,3,0,1,0,0,1,0,3,1
"1565",40,5,6,3,5,2733,6,5,436,1,0,1,0,1,0,0,6,6
"1566",40,5,6,3,3,2733,6,5,339,2,0,1,0,0,0,1,6,5
"1567",40,5,6,3,6,2733,6,5,517,3,0,1,0,0,1,0,6,4
"1568",40,5,6,3,5,2733,6,5,558,4,0,1,0,1,0,0,6,3
"1569",40,5,6,3,6,2733,6,5,219,5,0,1,0,0,1,0,6,2
"1570",40,5,6,3,3,2733,6,5,20,6,0,1,0,0,0,1,6,1
"1571",41,8,2,3,3,1784,8,5,199,1,1,0,0,0,0,1,4,4
"1572",41,8,2,3,8,1784,8,5,419,2,1,0,0,1,0,0,4,3
"1573",41,8,2,3,2,1784,8,5,279,3,1,0,0,0,1,0,4,2
"1574",41,8,2,3,3,1784,8,5,358,4,1,0,0,0,0,1,4,1
"1575",42,3,2,8,8,998,8,5,379,1,0,0,1,0,0,1,3,3
"1576",42,3,2,8,3,998,8,5,240,2,0,0,1,1,0,0,3,2
"1577",42,3,2,8,2,998,8,5,100,3,0,0,1,0,1,0,3,1
"1578",43,8,7,3,7,1462,8,5,417,1,1,0,0,0,1,0,3,3
"1579",43,8,7,3,8,1462,8,5,458,2,1,0,0,1,0,0,3,2
"1580",43,8,7,3,3,1462,8,5,280,3,1,0,0,0,0,1,3,1
"1581",44,5,8,3,5,1146,8,5,359,1,0,1,0,1,0,0,3,3
"1582",44,5,8,3,3,1146,8,5,320,2,0,1,0,0,0,1,3,2
"1583",44,5,8,3,5,1146,8,5,59,3,0,1,0,1,0,0,3,1
"1584",45,7,2,5,2,3518,7,5,357,1,1,0,0,0,1,0,6,6
"1585",45,7,2,5,7,3518,7,5,160,2,1,0,0,1,0,0,6,5
"1586",45,7,2,5,5,3518,7,5,678,3,1,0,0,0,0,1,6,4
"1587",45,7,2,5,7,3518,7,5,717,4,1,0,0,1,0,0,6,3
"1588",45,7,2,5,5,3518,7,5,937,5,1,0,0,0,0,1,6,2
"1589",45,7,2,5,7,3518,7,5,199,6,1,0,0,1,0,0,6,1
"1590",46,3,8,2,8,2249,8,5,278,1,0,1,0,0,1,0,5,5
"1591",46,3,8,2,3,2249,8,5,279,2,0,1,0,1,0,0,5,4
"1592",46,3,8,2,2,2249,8,5,339,3,0,1,0,0,0,1,5,3
"1593",46,3,8,2,3,2249,8,5,577,4,0,1,0,1,0,0,5,2
"1594",46,3,8,2,8,2249,8,5,339,5,0,1,0,0,1,0,5,1
"1595",47,5,2,6,5,1493,5,5,318,1,1,0,0,1,0,0,4,4
"1596",47,5,2,6,6,1493,5,5,359,2,1,0,0,0,0,1,4,3
"1597",47,5,2,6,2,1493,5,5,319,3,1,0,0,0,1,0,4,2
"1598",47,5,2,6,5,1493,5,5,139,4,1,0,0,1,0,0,4,1
"1599",48,5,3,1,3,1314,5,5,339,1,1,0,0,0,1,0,3,3
"1600",48,5,3,1,5,1314,5,5,240,2,1,0,0,1,0,0,3,2
"1601",48,5,3,1,1,1314,5,5,398,3,1,0,0,0,0,1,3,1
"1602",49,3,6,4,6,4403,6,5,298,1,0,1,0,0,1,0,8,8
"1603",49,3,6,4,3,4403,6,5,199,2,0,1,0,1,0,0,8,7
"1604",49,3,6,4,4,4403,6,5,758,3,0,1,0,0,0,1,8,6
"1605",49,3,6,4,6,4403,6,5,600,4,0,1,0,0,1,0,8,5
"1606",49,3,6,4,4,4403,6,5,438,5,0,1,0,0,0,1,8,4
"1607",49,3,6,4,6,4403,6,5,558,6,0,1,0,0,1,0,8,3
"1608",49,3,6,4,4,4403,6,5,319,7,0,1,0,0,0,1,8,2
"1609",49,3,6,4,6,4403,6,5,578,8,0,1,0,0,1,0,8,1
"1610",50,5,8,3,8,1828,8,5,239,1,0,1,0,0,1,0,4,4
"1611",50,5,8,3,5,1828,8,5,239,2,0,1,0,1,0,0,4,3
"1612",50,5,8,3,3,1828,8,5,418,3,0,1,0,0,0,1,4,2
"1613",50,5,8,3,8,1828,8,5,399,4,0,1,0,0,1,0,4,1
"1614",51,2,3,8,2,1979,8,5,258,1,0,0,1,1,0,0,5,5
"1615",51,2,3,8,8,1979,8,5,299,2,0,0,1,0,0,1,5,4
"1616",51,2,3,8,3,1979,8,5,240,3,0,0,1,0,1,0,5,3
"1617",51,2,3,8,2,1979,8,5,339,4,0,0,1,1,0,0,5,2
"1618",51,2,3,8,8,1979,8,5,300,5,0,0,1,0,0,1,5,1
"1619",52,8,2,6,2,3160,6,5,239,1,0,0,1,0,1,0,6,6
"1620",52,8,2,6,8,3160,6,5,659,2,0,0,1,1,0,0,6,5
"1621",52,8,2,6,6,3160,6,5,418,3,0,0,1,0,0,1,6,4
"1622",52,8,2,6,8,3160,6,5,698,4,0,0,1,1,0,0,6,3
"1623",52,8,2,6,6,3160,6,5,188,5,0,0,1,0,0,1,6,2
"1624",52,8,2,6,2,3160,6,5,279,6,0,0,1,0,1,0,6,1
"1625",53,6,3,2,3,2430,6,5,239,1,1,0,0,0,1,0,4,4
"1626",53,6,3,2,6,2430,6,5,478,2,1,0,0,1,0,0,4,3
"1627",53,6,3,2,2,2430,6,5,778,3,1,0,0,0,0,1,4,2
"1628",53,6,3,2,3,2430,6,5,518,4,1,0,0,0,1,0,4,1
"1629",54,2,6,5,2,1919,6,5,319,1,0,1,0,1,0,0,4,4
"1630",54,2,6,5,6,1919,6,5,220,2,0,1,0,0,1,0,4,3
"1631",54,2,6,5,5,1919,6,5,479,3,0,1,0,0,0,1,4,2
"1632",54,2,6,5,2,1919,6,5,280,4,0,1,0,1,0,0,4,1
"1633",55,4,7,2,2,2017,7,5,238,1,0,1,0,0,0,1,3,3
"1634",55,4,7,2,4,2017,7,5,798,2,0,1,0,1,0,0,3,2
"1635",55,4,7,2,7,2017,7,5,560,3,0,1,0,0,1,0,3,1
"1636",56,3,1,2,3,2346,2,5,358,1,0,0,1,1,0,0,5,5
"1637",56,3,1,2,2,2346,2,5,598,2,0,0,1,0,0,1,5,4
"1638",56,3,1,2,1,2346,2,5,638,3,0,0,1,0,1,0,5,3
"1639",56,3,1,2,2,2346,2,5,121,4,0,0,1,0,0,1,5,2
"1640",56,3,1,2,3,2346,2,5,41,5,0,0,1,1,0,0,5,1
"1641",57,8,1,6,1,1778,8,5,398,1,1,0,0,0,1,0,4,4
"1642",57,8,1,6,8,1778,8,5,338,2,1,0,0,1,0,0,4,3
"1643",57,8,1,6,6,1778,8,5,498,3,1,0,0,0,0,1,4,2
"1644",57,8,1,6,8,1778,8,5,80,4,1,0,0,1,0,0,4,1
"1645",58,2,5,7,5,1401,7,5,538,1,0,0,1,0,1,0,3,3
"1646",58,2,5,7,2,1401,7,5,359,2,0,0,1,1,0,0,3,2
"1647",58,2,5,7,7,1401,7,5,160,3,0,0,1,0,0,1,3,1
"1648",59,2,5,6,6,2327,5,5,239,1,0,1,0,0,0,1,5,5
"1649",59,2,5,6,2,2327,5,5,379,2,0,1,0,1,0,0,5,4
"1650",59,2,5,6,5,2327,5,5,539,3,0,1,0,0,1,0,5,3
"1651",59,2,5,6,6,2327,5,5,275,4,0,1,0,0,0,1,5,2
"1652",59,2,5,6,5,2327,5,5,319,5,0,1,0,0,1,0,5,1
"1653",60,6,3,7,7,2567,7,5,199,1,0,0,1,0,0,1,4,4
"1654",60,6,3,7,6,2567,7,5,758,2,0,0,1,1,0,0,4,3
"1655",60,6,3,7,3,2567,7,5,414,3,0,0,1,0,1,0,4,2
"1656",60,6,3,7,7,2567,7,5,738,4,0,0,1,0,0,1,4,1
"1657",61,1,3,2,2,3532,2,5,339,1,0,0,1,0,0,1,7,7
"1658",61,1,3,2,1,3532,2,5,459,2,0,0,1,1,0,0,7,6
"1659",61,1,3,2,3,3532,2,5,658,3,0,0,1,0,1,0,7,5
"1660",61,1,3,2,2,3532,2,5,498,4,0,0,1,0,0,1,7,4
"1661",61,1,3,2,1,3532,2,5,518,5,0,0,1,1,0,0,7,3
"1662",61,1,3,2,3,3532,2,5,458,6,0,0,1,0,1,0,7,2
"1663",61,1,3,2,2,3532,2,5,81,7,0,0,1,0,0,1,7,1
"1664",62,2,6,3,6,2137,6,5,457,1,0,1,0,0,1,0,4,4
"1665",62,2,6,3,2,2137,6,5,299,2,0,1,0,1,0,0,4,3
"1666",62,2,6,3,3,2137,6,5,459,3,0,1,0,0,0,1,4,2
"1667",62,2,6,3,6,2137,6,5,473,4,0,1,0,0,1,0,4,1
"1668",63,2,3,8,8,874,8,5,199,1,0,0,1,0,0,1,2,2
"1669",63,2,3,8,2,874,8,5,258,2,0,0,1,1,0,0,2,1
"1670",64,8,3,5,5,1744,8,5,172,1,1,0,0,0,0,1,4,4
"1671",64,8,3,5,8,1744,8,5,399,2,1,0,0,1,0,0,4,3
"1672",64,8,3,5,5,1744,8,5,399,3,1,0,0,0,0,1,4,2
"1673",64,8,3,5,3,1744,8,5,419,4,1,0,0,0,1,0,4,1
"1674",65,6,8,5,8,2112,8,5,259,1,0,1,0,0,1,0,4,4
"1675",65,6,8,5,6,2112,8,5,259,2,0,1,0,1,0,0,4,3
"1676",65,6,8,5,5,2112,8,5,359,3,0,1,0,0,0,1,4,2
"1677",65,6,8,5,8,2112,8,5,757,4,0,1,0,0,1,0,4,1
"1678",66,2,5,6,2,4359,6,5,398,1,0,0,1,1,0,0,8,8
"1679",66,2,5,6,6,4359,6,5,219,2,0,0,1,0,0,1,8,7
"1680",66,2,5,6,5,4359,6,5,299,3,0,0,1,0,1,0,8,6
"1681",66,2,5,6,6,4359,6,5,617,4,0,0,1,0,0,1,8,5
"1682",66,2,5,6,2,4359,6,5,579,5,0,0,1,1,0,0,8,4
"1683",66,2,5,6,5,4359,6,5,817,6,0,0,1,0,1,0,8,3
"1684",66,2,5,6,6,4359,6,5,758,7,0,0,1,0,0,1,8,2
"1685",66,2,5,6,2,4359,6,5,20,8,0,0,1,1,0,0,8,1
"1686",67,2,6,5,5,4224,6,5,219,1,0,1,0,0,0,1,7,7
"1687",67,2,6,5,2,4224,6,5,499,2,0,1,0,1,0,0,7,6
"1688",67,2,6,5,6,4224,6,5,419,3,0,1,0,0,1,0,7,5
"1689",67,2,6,5,5,4224,6,5,558,4,0,1,0,0,0,1,7,4
"1690",67,2,6,5,6,4224,6,5,498,5,0,1,0,0,1,0,7,3
"1691",67,2,6,5,5,4224,6,5,758,6,0,1,0,0,0,1,7,2
"1692",67,2,6,5,6,4224,6,5,539,7,0,1,0,0,1,0,7,1
"1693",68,3,5,6,3,2377,6,5,697,1,0,0,1,1,0,0,4,4
"1694",68,3,5,6,6,2377,6,5,380,2,0,0,1,0,0,1,4,3
"1695",68,3,5,6,5,2377,6,5,598,3,0,0,1,0,1,0,4,2
"1696",68,3,5,6,6,2377,6,5,201,4,0,0,1,0,0,1,4,1
"1697",69,2,6,1,6,2086,6,5,20,1,0,1,0,0,1,0,5,5
"1698",69,2,6,1,1,2086,6,5,315,2,0,1,0,0,0,1,5,4
"1699",69,2,6,1,2,2086,6,5,499,3,0,1,0,1,0,0,5,3
"1700",69,2,6,1,6,2086,6,5,688,4,0,1,0,0,1,0,5,2
"1701",69,2,6,1,2,2086,6,5,40,5,0,1,0,1,0,0,5,1
"1702",70,2,6,3,6,2058,6,5,199,1,0,1,0,0,1,0,5,5
"1703",70,2,6,3,2,2058,6,5,259,2,0,1,0,1,0,0,5,4
"1704",70,2,6,3,3,2058,6,5,479,3,0,1,0,0,0,1,5,3
"1705",70,2,6,3,6,2058,6,5,435,4,0,1,0,0,1,0,5,2
"1706",70,2,6,3,2,2058,6,5,200,5,0,1,0,1,0,0,5,1
"1707",71,6,1,3,1,1414,6,5,378,1,1,0,0,0,1,0,3,3
"1708",71,6,1,3,3,1414,6,5,199,2,1,0,0,0,0,1,3,2
"1709",71,6,1,3,6,1414,6,5,479,3,1,0,0,1,0,0,3,1
"1710",72,8,3,7,3,1251,8,5,438,1,1,0,0,0,1,0,3,3
"1711",72,8,3,7,8,1251,8,5,395,2,1,0,0,1,0,0,3,2
"1712",72,8,3,7,7,1251,8,5,100,3,1,0,0,0,0,1,3,1
"1713",73,3,2,7,7,1626,7,5,239,1,0,0,1,0,0,1,4,4
"1714",73,3,2,7,3,1626,7,5,359,2,0,0,1,1,0,0,4,3
"1715",73,3,2,7,2,1626,7,5,478,3,0,0,1,0,1,0,4,2
"1716",73,3,2,7,7,1626,7,5,199,4,0,0,1,0,0,1,4,1
"1717",74,5,2,1,1,1645,5,5,119,1,1,0,0,0,0,1,5,5
"1718",74,5,2,1,5,1645,5,5,258,2,1,0,0,1,0,0,5,4
"1719",74,5,2,1,2,1645,5,5,399,3,1,0,0,0,1,0,5,3
"1720",74,5,2,1,5,1645,5,5,140,4,1,0,0,1,0,0,5,2
"1721",74,5,2,1,1,1645,5,5,162,5,1,0,0,0,0,1,5,1
"1722",75,2,8,6,6,1380,8,5,278,1,0,1,0,0,0,1,3,3
"1723",75,2,8,6,2,1380,8,5,419,2,0,1,0,1,0,0,3,2
"1724",75,2,8,6,8,1380,8,5,341,3,0,1,0,0,1,0,3,1
"1725",76,6,2,5,2,1769,6,5,537,1,1,0,0,0,1,0,4,4
"1726",76,6,2,5,6,1769,6,5,260,2,1,0,0,1,0,0,4,3
"1727",76,6,2,5,5,1769,6,5,517,3,1,0,0,0,0,1,4,2
"1728",76,6,2,5,6,1769,6,5,60,4,1,0,0,1,0,0,4,1
"1729",77,3,6,1,1,2103,6,5,318,1,0,1,0,0,0,1,4,4
"1730",77,3,6,1,3,2103,6,5,379,2,0,1,0,1,0,0,4,3
"1731",77,3,6,1,6,2103,6,5,259,3,0,1,0,0,1,0,4,2
"1732",77,3,6,1,3,2103,6,5,577,4,0,1,0,1,0,0,4,1
"1733",78,3,4,1,3,2296,4,5,298,1,0,1,0,1,0,0,3,3
"1734",78,3,4,1,1,2296,4,5,977,2,0,1,0,0,0,1,3,2
"1735",78,3,4,1,4,2296,4,5,618,3,0,1,0,0,1,0,3,1
"1736",79,3,2,6,2,2650,3,5,236,1,1,0,0,0,1,0,6,6
"1737",79,3,2,6,3,2650,3,5,319,2,1,0,0,1,0,0,6,5
"1738",79,3,2,6,6,2650,3,5,518,3,1,0,0,0,0,1,6,4
"1739",79,3,2,6,3,2650,3,5,538,4,1,0,0,1,0,0,6,3
"1740",79,3,2,6,6,2650,3,5,259,5,1,0,0,0,0,1,6,2
"1741",79,3,2,6,3,2650,3,5,238,6,1,0,0,1,0,0,6,1
"1742",80,3,6,2,6,2510,6,5,298,1,0,1,0,0,1,0,6,6
"1743",80,3,6,2,3,2510,6,5,259,2,0,1,0,1,0,0,6,5
"1744",80,3,6,2,2,2510,6,5,439,3,0,1,0,0,0,1,6,4
"1745",80,3,6,2,6,2510,6,5,178,4,0,1,0,0,1,0,6,3
"1746",80,3,6,2,3,2510,6,5,418,5,0,1,0,1,0,0,6,2
"1747",80,3,6,2,6,2510,6,5,340,6,0,1,0,0,1,0,6,1
"1748",81,6,5,2,5,2369,5,5,299,1,0,1,0,0,1,0,6,6
"1749",81,6,5,2,2,2369,5,5,220,2,0,1,0,0,0,1,6,5
"1750",81,6,5,2,6,2369,5,5,399,3,0,1,0,1,0,0,6,4
"1751",81,6,5,2,2,2369,5,5,280,4,0,1,0,0,0,1,6,3
"1752",81,6,5,2,5,2369,5,5,320,5,0,1,0,0,1,0,6,2
"1753",81,6,5,2,2,2369,5,5,299,6,0,1,0,0,0,1,6,1
"1754",82,7,2,5,7,2900,7,5,139,1,1,0,0,1,0,0,5,5
"1755",82,7,2,5,5,2900,7,5,818,2,1,0,0,0,0,1,5,4
"1756",82,7,2,5,2,2900,7,5,438,3,1,0,0,0,1,0,5,3
"1757",82,7,2,5,5,2900,7,5,240,4,1,0,0,0,0,1,5,2
"1758",82,7,2,5,7,2900,7,5,498,5,1,0,0,1,0,0,5,1
"1759",83,5,2,3,2,1577,5,5,239,1,1,0,0,0,1,0,3,3
"1760",83,5,2,3,5,1577,5,5,218,2,1,0,0,1,0,0,3,2
"1761",83,5,2,3,3,1577,5,5,780,3,1,0,0,0,0,1,3,1
"1762",84,2,8,6,8,1951,8,5,498,1,0,1,0,0,1,0,3,3
"1763",84,2,8,6,6,1951,8,5,220,2,0,1,0,0,0,1,3,2
"1764",84,2,8,6,2,1951,8,5,539,3,0,1,0,1,0,0,3,1
"1765",85,6,8,1,1,1532,8,5,437,1,0,1,0,0,0,1,3,3
"1766",85,6,8,1,6,1532,8,5,359,2,0,1,0,1,0,0,3,2
"1767",85,6,8,1,8,1532,8,5,399,3,0,1,0,0,1,0,3,1
"1768",86,8,3,5,8,974,8,5,418,1,1,0,0,1,0,0,2,2
"1769",86,8,3,5,5,974,8,5,220,2,1,0,0,0,0,1,2,1
"1770",87,3,2,1,2,2831,3,5,301,1,1,0,0,0,1,0,6,6
"1771",87,3,2,1,3,2831,3,5,231,2,1,0,0,1,0,0,6,5
"1772",87,3,2,1,1,2831,3,5,418,3,1,0,0,0,0,1,6,4
"1773",87,3,2,1,2,2831,3,5,498,4,1,0,0,0,1,0,6,3
"1774",87,3,2,1,3,2831,3,5,738,5,1,0,0,1,0,0,6,2
"1775",87,3,2,1,2,2831,3,5,19,6,1,0,0,0,1,0,6,1
"1776",88,6,2,1,6,2163,6,5,179,1,1,0,0,1,0,0,5,5
"1777",88,6,2,1,1,2163,6,5,378,2,1,0,0,0,0,1,5,4
"1778",88,6,2,1,2,2163,6,5,499,3,1,0,0,0,1,0,5,3
"1779",88,6,2,1,6,2163,6,5,298,4,1,0,0,1,0,0,5,2
"1780",88,6,2,1,1,2163,6,5,219,5,1,0,0,0,0,1,5,1
"1781",89,2,6,8,6,1235,8,5,239,1,0,0,1,0,1,0,3,3
"1782",89,2,6,8,2,1235,8,5,240,2,0,0,1,1,0,0,3,2
"1783",89,2,6,8,8,1235,8,5,401,3,0,0,1,0,0,1,3,1
"1784",90,3,6,2,6,2093,6,5,298,1,0,1,0,0,1,0,4,4
"1785",90,3,6,2,3,2093,6,5,140,2,0,1,0,1,0,0,4,3
"1786",90,3,6,2,2,2093,6,5,379,3,0,1,0,0,0,1,4,2
"1787",90,3,6,2,6,2093,6,5,698,4,0,1,0,0,1,0,4,1
"1788",91,6,3,2,3,2309,6,5,379,1,1,0,0,0,1,0,5,5
"1789",91,6,3,2,6,2309,6,5,320,2,1,0,0,1,0,0,5,4
"1790",91,6,3,2,2,2309,6,5,538,3,1,0,0,0,0,1,5,3
"1791",91,6,3,2,3,2309,6,5,359,4,1,0,0,0,1,0,5,2
"1792",91,6,3,2,6,2309,6,5,300,5,1,0,0,1,0,0,5,1
"1793",92,2,6,3,6,3410,6,5,478,1,0,1,0,0,1,0,7,7
"1794",92,2,6,3,2,3410,6,5,259,2,0,1,0,1,0,0,7,6
"1795",92,2,6,3,3,3410,6,5,338,3,0,1,0,0,0,1,7,5
"1796",92,2,6,3,2,3410,6,5,379,4,0,1,0,1,0,0,7,4
"1797",92,2,6,3,3,3410,6,5,378,5,0,1,0,0,0,1,7,3
"1798",92,2,6,3,6,3410,6,5,677,6,0,1,0,0,1,0,7,2
"1799",92,2,6,3,3,3410,6,5,178,7,0,1,0,0,0,1,7,1
"1800",93,3,5,6,5,1514,6,5,359,1,0,0,1,0,1,0,3,3
"1801",93,3,5,6,3,1514,6,5,239,2,0,0,1,1,0,0,3,2
"1802",93,3,5,6,6,1514,6,5,440,3,0,0,1,0,0,1,3,1
"1803",94,2,3,7,7,1416,7,5,199,1,0,0,1,0,0,1,4,4
"1804",94,2,3,7,2,1416,7,5,379,2,0,0,1,1,0,0,4,3
"1805",94,2,3,7,3,1416,7,5,299,3,0,0,1,0,1,0,4,2
"1806",94,2,3,7,7,1416,7,5,124,4,0,0,1,0,0,1,4,1
"1807",95,4,3,1,3,2971,3,5,320,1,0,1,0,0,1,0,7,7
"1808",95,4,3,1,4,2971,3,5,339,2,0,1,0,1,0,0,7,6
"1809",95,4,3,1,1,2971,3,5,438,3,0,1,0,0,0,1,7,5
"1810",95,4,3,1,3,2971,3,5,435,4,0,1,0,0,1,0,7,4
"1811",95,4,3,1,4,2971,3,5,240,5,0,1,0,1,0,0,7,3
"1812",95,4,3,1,3,2971,3,5,478,6,0,1,0,0,1,0,7,2
"1813",95,4,3,1,4,2971,3,5,41,7,0,1,0,1,0,0,7,1
"1814",96,5,3,2,3,2277,5,5,219,1,1,0,0,0,1,0,4,4
"1815",96,5,3,2,5,2277,5,5,359,2,1,0,0,1,0,0,4,3
"1816",96,5,3,2,2,2277,5,5,418,3,1,0,0,0,0,1,4,2
"1817",96,5,3,2,5,2277,5,5,817,4,1,0,0,1,0,0,4,1
"1818",97,2,5,3,2,2988,5,5,219,1,0,1,0,1,0,0,6,6
"1819",97,2,5,3,3,2988,5,5,398,2,0,1,0,0,0,1,6,5
"1820",97,2,5,3,5,2988,5,5,538,3,0,1,0,0,1,0,6,4
"1821",97,2,5,3,2,2988,5,5,439,4,0,1,0,1,0,0,6,3
"1822",97,2,5,3,3,2988,5,5,578,5,0,1,0,0,0,1,6,2
"1823",97,2,5,3,5,2988,5,5,259,6,0,1,0,0,1,0,6,1
"1824",98,3,2,6,2,2546,6,5,338,1,0,0,1,0,1,0,5,5
"1825",98,3,2,6,3,2546,6,5,299,2,0,0,1,1,0,0,5,4
"1826",98,3,2,6,6,2546,6,5,498,3,0,0,1,0,0,1,5,3
"1827",98,3,2,6,3,2546,6,5,658,4,0,0,1,1,0,0,5,2
"1828",98,3,2,6,6,2546,6,5,339,5,0,0,1,0,0,1,5,1
"1829",99,4,2,3,2,1771,4,5,458,1,1,0,0,0,1,0,4,4
"1830",99,4,2,3,4,1771,4,5,260,2,1,0,0,1,0,0,4,3
"1831",99,4,2,3,3,1771,4,5,496,3,1,0,0,0,0,1,4,2
"1832",99,4,2,3,4,1771,4,5,219,4,1,0,0,1,0,0,4,1
"1833",100,8,2,6,2,1341,8,5,338,1,1,0,0,0,1,0,3,3
"1834",100,8,2,6,8,1341,8,5,379,2,1,0,0,1,0,0,3,2
"1835",100,8,2,6,6,1341,8,5,260,3,1,0,0,0,0,1,3,1
"1836",1,2,3,1,1,2858,3,6,159,1,0,1,0,0,0,1,5,5
"1837",1,2,3,1,3,2858,3,6,179,2,0,1,0,0,1,0,5,4
"1838",1,2,3,1,1,2858,3,6,199,3,0,1,0,0,0,1,5,3
"1839",1,2,3,1,2,2858,3,6,200,4,0,1,0,1,0,0,5,2
"1840",1,2,3,1,3,2858,3,6,1295,5,0,1,0,0,1,0,5,1
"1841",2,1,2,3,2,1948,3,6,139,1,0,0,1,0,1,0,5,5
"1842",2,1,2,3,1,1948,3,6,357,2,0,0,1,1,0,0,5,4
"1843",2,1,2,3,3,1948,3,6,400,3,0,0,1,0,0,1,5,3
"1844",2,1,2,3,2,1948,3,6,398,4,0,0,1,0,1,0,5,2
"1845",2,1,2,3,3,1948,3,6,118,5,0,0,1,0,0,1,5,1
"1846",3,3,6,2,6,3624,6,6,198,1,0,1,0,0,1,0,6,6
"1847",3,3,6,2,3,3624,6,6,359,2,0,1,0,1,0,0,6,5
"1848",3,3,6,2,2,3624,6,6,278,3,0,1,0,0,0,1,6,4
"1849",3,3,6,2,6,3624,6,6,1276,4,0,1,0,0,1,0,6,3
"1850",3,3,6,2,2,3624,6,6,478,5,0,1,0,0,0,1,6,2
"1851",3,3,6,2,6,3624,6,6,499,6,0,1,0,0,1,0,6,1
"1852",4,2,1,6,6,2585,6,6,417,1,0,0,1,0,0,1,4,4
"1853",4,2,1,6,2,2585,6,6,298,2,0,0,1,1,0,0,4,3
"1854",4,2,1,6,1,2585,6,6,478,3,0,0,1,0,1,0,4,2
"1855",4,2,1,6,6,2585,6,6,718,4,0,0,1,0,0,1,4,1
"1856",5,6,4,5,4,3416,6,6,258,1,1,0,0,0,1,0,9,9
"1857",5,6,4,5,5,3416,6,6,199,2,1,0,0,0,0,1,9,8
"1858",5,6,4,5,6,3416,6,6,379,3,1,0,0,1,0,0,9,7
"1859",5,6,4,5,4,3416,6,6,399,4,1,0,0,0,1,0,9,6
"1860",5,6,4,5,6,3416,6,6,199,5,1,0,0,1,0,0,9,5
"1861",5,6,4,5,5,3416,6,6,220,6,1,0,0,0,0,1,9,4
"1862",5,6,4,5,6,3416,6,6,379,7,1,0,0,1,0,0,9,3
"1863",5,6,4,5,4,3416,6,6,518,8,1,0,0,0,1,0,9,2
"1864",5,6,4,5,6,3416,6,6,220,9,1,0,0,1,0,0,9,1
"1865",6,3,1,2,1,3191,3,6,199,1,1,0,0,0,1,0,6,6
"1866",6,3,1,2,3,3191,3,6,379,2,1,0,0,1,0,0,6,5
"1867",6,3,1,2,2,3191,3,6,359,3,1,0,0,0,0,1,6,4
"1868",6,3,1,2,3,3191,3,6,199,4,1,0,0,1,0,0,6,3
"1869",6,3,1,2,1,3191,3,6,1116,5,1,0,0,0,1,0,6,2
"1870",6,3,1,2,3,3191,3,6,418,6,1,0,0,1,0,0,6,1
"1871",7,1,6,3,6,3654,6,6,458,1,0,1,0,0,1,0,7,7
"1872",7,1,6,3,1,3654,6,6,379,2,0,1,0,1,0,0,7,6
"1873",7,1,6,3,6,3654,6,6,160,3,0,1,0,0,1,0,7,5
"1874",7,1,6,3,1,3654,6,6,219,4,0,1,0,1,0,0,7,4
"1875",7,1,6,3,6,3654,6,6,279,5,0,1,0,0,1,0,7,3
"1876",7,1,6,3,3,3654,6,6,279,6,0,1,0,0,0,1,7,2
"1877",7,1,6,3,6,3654,6,6,1236,7,0,1,0,0,1,0,7,1
"1878",8,1,6,3,6,4192,3,6,836,1,0,0,1,0,1,0,7,7
"1879",8,1,6,3,3,4192,3,6,240,2,0,0,1,0,0,1,7,6
"1880",8,1,6,3,1,4192,3,6,438,3,0,0,1,1,0,0,7,5
"1881",8,1,6,3,3,4192,3,6,498,4,0,0,1,0,0,1,7,4
"1882",8,1,6,3,6,4192,3,6,518,5,0,0,1,0,1,0,7,3
"1883",8,1,6,3,1,4192,3,6,818,6,0,0,1,1,0,0,7,2
"1884",8,1,6,3,3,4192,3,6,298,7,0,0,1,0,0,1,7,1
"1885",9,5,3,1,3,2517,3,6,238,1,0,1,0,0,1,0,4,4
"1886",9,5,3,1,1,2517,3,6,338,2,0,1,0,0,0,1,4,3
"1887",9,5,3,1,5,2517,3,6,837,3,0,1,0,1,0,0,4,2
"1888",9,5,3,1,3,2517,3,6,639,4,0,1,0,0,1,0,4,1
"1889",10,6,3,2,6,3714,6,6,160,1,1,0,0,1,0,0,7,7
"1890",10,6,3,2,3,3714,6,6,398,2,1,0,0,0,1,0,7,6
"1891",10,6,3,2,2,3714,6,6,618,3,1,0,0,0,0,1,7,5
"1892",10,6,3,2,6,3714,6,6,1196,4,1,0,0,1,0,0,7,4
"1893",10,6,3,2,3,3714,6,6,279,5,1,0,0,0,1,0,7,3
"1894",10,6,3,2,2,3714,6,6,240,6,1,0,0,0,0,1,7,2
"1895",10,6,3,2,6,3714,6,6,161,7,1,0,0,1,0,0,7,1
"1896",11,3,6,1,6,3055,1,6,180,1,0,0,1,0,1,0,6,6
"1897",11,3,6,1,1,3055,1,6,319,2,0,0,1,0,0,1,6,5
"1898",11,3,6,1,3,3055,1,6,518,3,0,0,1,1,0,0,6,4
"1899",11,3,6,1,1,3055,1,6,737,4,0,0,1,0,0,1,6,3
"1900",11,3,6,1,3,3055,1,6,259,5,0,0,1,1,0,0,6,2
"1901",11,3,6,1,6,3055,1,6,539,6,0,0,1,0,1,0,6,1
"1902",12,4,2,6,2,2194,6,6,259,1,0,0,1,0,1,0,6,6
"1903",12,4,2,6,6,2194,6,6,101,2,0,0,1,0,0,1,6,5
"1904",12,4,2,6,4,2194,6,6,359,3,0,0,1,1,0,0,6,4
"1905",12,4,2,6,6,2194,6,6,419,4,0,0,1,0,0,1,6,3
"1906",12,4,2,6,2,2194,6,6,397,5,0,0,1,0,1,0,6,2
"1907",12,4,2,6,6,2194,6,6,101,6,0,0,1,0,0,1,6,1
"1908",13,3,2,6,2,4359,3,6,378,1,1,0,0,0,1,0,6,6
"1909",13,3,2,6,3,4359,3,6,279,2,1,0,0,1,0,0,6,5
"1910",13,3,2,6,6,4359,3,6,597,3,1,0,0,0,0,1,6,4
"1911",13,3,2,6,3,4359,3,6,1196,4,1,0,0,1,0,0,6,3
"1912",13,3,2,6,6,4359,3,6,896,5,1,0,0,0,0,1,6,2
"1913",13,3,2,6,3,4359,3,6,455,6,1,0,0,1,0,0,6,1
"1914",14,6,3,2,3,2670,6,6,179,1,1,0,0,0,1,0,5,5
"1915",14,6,3,2,6,2670,6,6,458,2,1,0,0,1,0,0,5,4
"1916",14,6,3,2,2,2670,6,6,379,3,1,0,0,0,0,1,5,3
"1917",14,6,3,2,3,2670,6,6,259,4,1,0,0,0,1,0,5,2
"1918",14,6,3,2,6,2670,6,6,897,5,1,0,0,1,0,0,5,1
"1919",15,6,3,1,3,2678,6,6,399,1,1,0,0,0,1,0,5,5
"1920",15,6,3,1,6,2678,6,6,917,2,1,0,0,1,0,0,5,4
"1921",15,6,3,1,3,2678,6,6,179,3,1,0,0,0,1,0,5,3
"1922",15,6,3,1,1,2678,6,6,219,4,1,0,0,0,0,1,5,2
"1923",15,6,3,1,6,2678,6,6,40,5,1,0,0,1,0,0,5,1
"1924",16,1,6,5,6,2564,6,6,338,1,0,1,0,0,1,0,4,4
"1925",16,1,6,5,1,2564,6,6,319,2,0,1,0,1,0,0,4,3
"1926",16,1,6,5,5,2564,6,6,600,3,0,1,0,0,0,1,4,2
"1927",16,1,6,5,6,2564,6,6,857,4,0,1,0,0,1,0,4,1
"1928",17,3,5,1,5,4012,5,6,418,1,0,1,0,0,1,0,5,5
"1929",17,3,5,1,3,4012,5,6,1355,2,0,1,0,1,0,0,5,4
"1930",17,3,5,1,5,4012,5,6,497,3,0,1,0,0,1,0,5,3
"1931",17,3,5,1,1,4012,5,6,200,4,0,1,0,0,0,1,5,2
"1932",17,3,5,1,5,4012,5,6,1040,5,0,1,0,0,1,0,5,1
"1933",18,1,6,5,6,2258,5,6,20,1,0,0,1,0,1,0,6,6
"1934",18,1,6,5,5,2258,5,6,239,2,0,0,1,0,0,1,6,5
"1935",18,1,6,5,1,2258,5,6,179,3,0,0,1,1,0,0,6,4
"1936",18,1,6,5,6,2258,5,6,418,4,0,0,1,0,1,0,6,3
"1937",18,1,6,5,1,2258,5,6,419,5,0,0,1,1,0,0,6,2
"1938",18,1,6,5,5,2258,5,6,341,6,0,0,1,0,0,1,6,1
"1939",19,5,6,1,6,3695,6,6,538,1,0,1,0,0,1,0,8,8
"1940",19,5,6,1,5,3695,6,6,238,2,0,1,0,1,0,0,8,7
"1941",19,5,6,1,1,3695,6,6,319,3,0,1,0,0,0,1,8,6
"1942",19,5,6,1,6,3695,6,6,857,4,0,1,0,0,1,0,8,5
"1943",19,5,6,1,5,3695,6,6,279,5,0,1,0,1,0,0,8,4
"1944",19,5,6,1,6,3695,6,6,658,6,0,1,0,0,1,0,8,3
"1945",19,5,6,1,5,3695,6,6,18,7,0,1,0,1,0,0,8,2
"1946",19,5,6,1,6,3695,6,6,140,8,0,1,0,0,1,0,8,1
"1947",20,3,6,2,3,3669,3,6,260,1,1,0,0,1,0,0,6,6
"1948",20,3,6,2,2,3669,3,6,358,2,1,0,0,0,0,1,6,5
"1949",20,3,6,2,6,3669,3,6,399,3,1,0,0,0,1,0,6,4
"1950",20,3,6,2,3,3669,3,6,799,4,1,0,0,1,0,0,6,3
"1951",20,3,6,2,6,3669,3,6,471,5,1,0,0,0,1,0,6,2
"1952",20,3,6,2,3,3669,3,6,658,6,1,0,0,1,0,0,6,1
"1953",21,1,3,5,5,2274,5,6,259,1,0,0,1,0,0,1,4,4
"1954",21,1,3,5,1,2274,5,6,478,2,0,0,1,1,0,0,4,3
"1955",21,1,3,5,3,2274,5,6,298,3,0,0,1,0,1,0,4,2
"1956",21,1,3,5,5,2274,5,6,778,4,0,0,1,0,0,1,4,1
"1957",22,1,4,3,4,2377,4,6,100,1,0,1,0,0,1,0,5,5
"1958",22,1,4,3,3,2377,4,6,180,2,0,1,0,0,0,1,5,4
"1959",22,1,4,3,1,2377,4,6,358,3,0,1,0,1,0,0,5,3
"1960",22,1,4,3,3,2377,4,6,319,4,0,1,0,0,0,1,5,2
"1961",22,1,4,3,4,2377,4,6,859,5,0,1,0,0,1,0,5,1
"1962",23,3,2,1,2,3345,3,6,200,1,1,0,0,0,1,0,8,8
"1963",23,3,2,1,1,3345,3,6,459,2,1,0,0,0,0,1,8,7
"1964",23,3,2,1,2,3345,3,6,418,3,1,0,0,0,1,0,8,6
"1965",23,3,2,1,3,3345,3,6,439,4,1,0,0,1,0,0,8,5
"1966",23,3,2,1,2,3345,3,6,278,5,1,0,0,0,1,0,8,4
"1967",23,3,2,1,1,3345,3,6,478,6,1,0,0,0,0,1,8,3
"1968",23,3,2,1,2,3345,3,6,259,7,1,0,0,0,1,0,8,2
"1969",23,3,2,1,3,3345,3,6,159,8,1,0,0,1,0,0,8,1
"1970",24,3,2,6,6,3030,2,6,278,1,0,1,0,0,0,1,5,5
"1971",24,3,2,6,3,3030,2,6,239,2,0,1,0,1,0,0,5,4
"1972",24,3,2,6,2,3030,2,6,1117,3,0,1,0,0,1,0,5,3
"1973",24,3,2,6,6,3030,2,6,360,4,0,1,0,0,0,1,5,2
"1974",24,3,2,6,2,3030,2,6,519,5,0,1,0,0,1,0,5,1
"1975",25,5,1,6,1,4518,6,6,738,1,0,0,1,0,1,0,4,4
"1976",25,5,1,6,6,4518,6,6,299,2,0,0,1,0,0,1,4,3
"1977",25,5,1,6,5,4518,6,6,837,3,0,0,1,1,0,0,4,2
"1978",25,5,1,6,6,4518,6,6,159,4,0,0,1,0,0,1,4,1
"1979",26,3,6,1,6,2692,6,6,99,1,0,1,0,0,1,0,4,4
"1980",26,3,6,1,1,2692,6,6,120,2,0,1,0,0,0,1,4,3
"1981",26,3,6,1,3,2692,6,6,417,3,0,1,0,1,0,0,4,2
"1982",26,3,6,1,6,2692,6,6,1494,4,0,1,0,0,1,0,4,1
"1983",27,6,3,1,3,2790,6,6,166,1,1,0,0,0,1,0,5,5
"1984",27,6,3,1,6,2790,6,6,399,2,1,0,0,1,0,0,5,4
"1985",27,6,3,1,3,2790,6,6,598,3,1,0,0,0,1,0,5,3
"1986",27,6,3,1,1,2790,6,6,240,4,1,0,0,0,0,1,5,2
"1987",27,6,3,1,6,2790,6,6,937,5,1,0,0,1,0,0,5,1
"1988",28,6,3,5,3,3146,3,6,278,1,0,1,0,0,1,0,6,6
"1989",28,6,3,5,5,3146,3,6,299,2,0,1,0,0,0,1,6,5
"1990",28,6,3,5,6,3146,3,6,658,3,0,1,0,1,0,0,6,4
"1991",28,6,3,5,3,3146,3,6,678,4,0,1,0,0,1,0,6,3
"1992",28,6,3,5,6,3146,3,6,20,5,0,1,0,1,0,0,6,2
"1993",28,6,3,5,3,3146,3,6,478,6,0,1,0,0,1,0,6,1
"1994",29,6,1,5,1,2514,5,6,159,1,0,0,1,0,1,0,4,4
"1995",29,6,1,5,6,2514,5,6,419,2,0,0,1,1,0,0,4,3
"1996",29,6,1,5,1,2514,5,6,578,3,0,0,1,0,1,0,4,2
"1997",29,6,1,5,5,2514,5,6,799,4,0,0,1,0,0,1,4,1
"1998",30,1,3,5,3,2676,5,6,139,1,0,0,1,0,1,0,8,8
"1999",30,1,3,5,1,2676,5,6,199,2,0,0,1,1,0,0,8,7
"2000",30,1,3,5,5,2676,5,6,219,3,0,0,1,0,0,1,8,6
"2001",30,1,3,5,1,2676,5,6,299,4,0,0,1,1,0,0,8,5
"2002",30,1,3,5,3,2676,5,6,374,5,0,0,1,0,1,0,8,4
"2003",30,1,3,5,5,2676,5,6,298,6,0,0,1,0,0,1,8,3
"2004",30,1,3,5,3,2676,5,6,140,7,0,0,1,0,1,0,8,2
"2005",30,1,3,5,5,2676,5,6,359,8,0,0,1,0,0,1,8,1
"2006",31,2,3,4,4,2384,4,6,159,1,0,0,1,0,0,1,5,5
"2007",31,2,3,4,2,2384,4,6,259,2,0,0,1,1,0,0,5,4
"2008",31,2,3,4,3,2384,4,6,419,3,0,0,1,0,1,0,5,3
"2009",31,2,3,4,2,2384,4,6,379,4,0,0,1,1,0,0,5,2
"2010",31,2,3,4,4,2384,4,6,738,5,0,0,1,0,0,1,5,1
"2011",32,4,5,3,5,2154,4,6,474,1,1,0,0,0,1,0,4,4
"2012",32,4,5,3,4,2154,4,6,399,2,1,0,0,1,0,0,4,3
"2013",32,4,5,3,3,2154,4,6,518,3,1,0,0,0,0,1,4,2
"2014",32,4,5,3,4,2154,4,6,340,4,1,0,0,1,0,0,4,1
"2015",33,6,5,2,5,4040,6,6,199,1,1,0,0,0,1,0,5,5
"2016",33,6,5,2,6,4040,6,6,259,2,1,0,0,1,0,0,5,4
"2017",33,6,5,2,2,4040,6,6,418,3,1,0,0,0,0,1,5,3
"2018",33,6,5,2,5,4040,6,6,597,4,1,0,0,0,1,0,5,2
"2019",33,6,5,2,6,4040,6,6,2113,5,1,0,0,1,0,0,5,1
"2020",34,1,4,6,6,2335,6,6,239,1,0,0,1,0,0,1,6,6
"2021",34,1,4,6,1,2335,6,6,338,2,0,0,1,1,0,0,6,5
"2022",34,1,4,6,4,2335,6,6,257,3,0,0,1,0,1,0,6,4
"2023",34,1,4,6,6,2335,6,6,239,4,0,0,1,0,0,1,6,3
"2024",34,1,4,6,4,2335,6,6,179,5,0,0,1,0,1,0,6,2
"2025",34,1,4,6,6,2335,6,6,520,6,0,0,1,0,0,1,6,1
"2026",35,6,4,1,1,2287,4,6,219,1,0,1,0,0,0,1,3,3
"2027",35,6,4,1,6,2287,4,6,758,2,0,1,0,1,0,0,3,2
"2028",35,6,4,1,4,2287,4,6,837,3,0,1,0,0,1,0,3,1
"2029",36,5,3,1,5,8489,5,6,359,1,1,0,0,1,0,0,10,10
"2030",36,5,3,1,3,8489,5,6,338,2,1,0,0,0,1,0,10,9
"2031",36,5,3,1,1,8489,5,6,438,3,1,0,0,0,0,1,10,8
"2032",36,5,3,1,3,8489,5,6,418,4,1,0,0,0,1,0,10,7
"2033",36,5,3,1,5,8489,5,6,995,5,1,0,0,1,0,0,10,6
"2034",36,5,3,1,3,8489,5,6,259,6,1,0,0,0,1,0,10,5
"2035",36,5,3,1,1,8489,5,6,559,7,1,0,0,0,0,1,10,4
"2036",36,5,3,1,5,8489,5,6,2292,8,1,0,0,1,0,0,10,3
"2037",36,5,3,1,3,8489,5,6,559,9,1,0,0,0,1,0,10,2
"2038",36,5,3,1,5,8489,5,6,1356,10,1,0,0,1,0,0,10,1
"2039",37,6,5,1,5,1956,6,6,219,1,1,0,0,0,1,0,4,4
"2040",37,6,5,1,6,1956,6,6,299,2,1,0,0,1,0,0,4,3
"2041",37,6,5,1,1,1956,6,6,478,3,1,0,0,0,0,1,4,2
"2042",37,6,5,1,6,1956,6,6,558,4,1,0,0,1,0,0,4,1
"2043",38,1,3,5,3,2522,3,6,199,1,0,1,0,0,1,0,7,7
"2044",38,1,3,5,5,2522,3,6,339,2,0,1,0,0,0,1,7,6
"2045",38,1,3,5,3,2522,3,6,558,3,0,1,0,0,1,0,7,5
"2046",38,1,3,5,1,2522,3,6,231,4,0,1,0,1,0,0,7,4
"2047",38,1,3,5,5,2522,3,6,458,5,0,1,0,0,0,1,7,3
"2048",38,1,3,5,1,2522,3,6,219,6,0,1,0,1,0,0,7,2
"2049",38,1,3,5,3,2522,3,6,22,7,0,1,0,0,1,0,7,1
"2050",39,3,1,5,1,7768,3,6,678,1,1,0,0,0,1,0,11,11
"2051",39,3,1,5,3,7768,3,6,439,2,1,0,0,1,0,0,11,10
"2052",39,3,1,5,5,7768,3,6,478,3,1,0,0,0,0,1,11,9
"2053",39,3,1,5,3,7768,3,6,1057,4,1,0,0,1,0,0,11,8
"2054",39,3,1,5,1,7768,3,6,459,5,1,0,0,0,1,0,11,7
"2055",39,3,1,5,3,7768,3,6,439,6,1,0,0,1,0,0,11,6
"2056",39,3,1,5,5,7768,3,6,458,7,1,0,0,0,0,1,11,5
"2057",39,3,1,5,3,7768,3,6,394,8,1,0,0,1,0,0,11,4
"2058",39,3,1,5,1,7768,3,6,697,9,1,0,0,0,1,0,11,3
"2059",39,3,1,5,5,7768,3,6,676,10,1,0,0,0,0,1,11,2
"2060",39,3,1,5,3,7768,3,6,1148,11,1,0,0,1,0,0,11,1
"2061",40,1,6,2,6,3334,6,6,180,1,0,1,0,0,1,0,4,4
"2062",40,1,6,2,2,3334,6,6,419,2,0,1,0,0,0,1,4,3
"2063",40,1,6,2,1,3334,6,6,419,3,0,1,0,1,0,0,4,2
"2064",40,1,6,2,6,3334,6,6,1914,4,0,1,0,0,1,0,4,1
